ChannelTitle=,0 Z Force Plate,1 Z Force Plate,Summed Z Force,EMG1 RBack or Forearm,EMG1 RBack filtered,EMG1 RBack median power,EMG1 RBack smoothed,EMG2 RGlute,EMG2 RGlute filtered,EMG2 RGlute median power,EMG2 RGlute smoothed,EMG3 RHam,EMG3 RHam filtered,EMG3 RHam median power,EMG3 RHam smoothed,EMG4 RQuad,EMG4 RQuad filtered,EMG RQuad median power,EMG4 RQuad smoothed
3523.95,1.199067,569.7902,570.9893,-0.03471875,-0.02734425,0,0.03985048,-0.02629687,0.01601323,0,0.01587746,-0.02457812,-0.1791346,0,0.1694644,0.002578125,0.009283494,0,0.01421006
3523.9509,1.199067,569.7902,570.6795,-0.0295625,-0.02734425,0,0.03985048,-0.02303125,0.01601323,0,0.01587746,-0.02354687,-0.1791346,0,0.1694644,0.00240625,0.009283494,0,0.01421006
3523.9518,0.5794686,569.7902,570.3697,-0.03145312,-0.02734425,0,0.03985048,-0.02389062,0.01601323,0,0.01587746,-0.01821875,-0.1791346,0,0.1694644,0.004296875,0.009283494,0,0.01421006
3523.9527,-0.659729,570.4115,569.7518,-0.03454687,-0.02734425,0,0.03985048,-0.01942187,0.01601323,0,0.01587746,-0.01546875,-0.1791346,0,0.1694644,0.00240625,0.009283494,0,0.01421006
3523.9536,0.5794686,571.6541,572.2336,-0.0323125,-0.02734425,0,0.03985048,-0.01890625,0.01601323,0,0.01587746,-0.01564062,-0.1791346,0,0.1694644,6.25E-16,0.009283494,0,0.01421006
3523.9545,2.438265,570.4115,572.8498,-0.0199375,-0.02734425,0,0.03985048,-0.01357812,0.01601323,0,0.01587746,-0.009453125,-0.1791346,0,0.1694644,-0.00378125,0.009283494,0,0.01421006
3523.9554,3.057864,569.1689,572.2268,-0.0048125,-0.02734425,0,0.03985048,-0.01753125,0.01601323,0,0.01587746,0.009453125,-0.1791346,0,0.1694644,0.00034375,0.009283494,0,0.01421006
3523.9563,2.438265,569.1689,571.6072,-0.004296875,-0.02734425,0,0.03985048,-0.02010937,0.01601323,0,0.01587746,0.00171875,-0.1791346,0,0.1694644,-0.001890625,0.009283494,0,0.01421006
3523.9572,1.818666,569.7902,571.6089,-0.0165,-0.02734425,0,0.03985048,-0.017875,0.01601323,0,0.01587746,-0.04039062,-0.1791346,0,0.1694644,-0.008421875,0.009283494,0,0.01421006
3523.9581,1.818666,571.0328,572.8515,-0.039875,-0.02734425,0,0.03985048,-0.01821875,0.01601323,0,0.01587746,-0.03025,-0.1791346,0,0.1694644,-0.00446875,0.009283494,0,0.01421006
3523.959,2.438265,572.2754,574.7137,-0.05139062,-0.02734425,0,0.03985048,-0.017875,0.01601323,0,0.01587746,-0.02492187,-0.1791346,0,0.1694644,-0.003609375,0.009283494,0,0.01421006
3523.9599,2.438265,572.2754,574.0932,-0.06685937,-0.02734425,0,0.03985048,-0.01598437,0.01601323,0,0.01587746,-0.01598437,-0.1791346,0,0.1694644,-0.00171875,0.009283494,0,0.01421006
3523.9608,1.818666,571.6541,573.4728,-0.0611875,-0.02734425,0,0.03985048,-0.012375,0.01601323,0,0.01587746,-0.0199375,-0.1791346,0,0.1694644,-0.004296875,0.009283494,0,0.01421006
3523.9617,2.438265,570.4115,572.8498,-0.06221875,-0.02734425,0,0.03985048,-0.008078125,0.01601323,0,0.01587746,-0.0130625,-0.1791346,0,0.1694644,-0.003609375,0.009283494,0,0.01421006
3523.9626,2.438265,569.1689,571.6072,-0.06479687,-0.02734425,0,0.03985048,-0.00653125,0.01601323,0,0.01587746,-0.007734375,-0.1791346,0,0.1694644,-0.001546875,0.009283494,0,0.01421006
3523.9635,1.818666,568.5477,570.3663,-0.06995312,-0.02734425,0,0.03985048,-0.0034375,0.01601323,0,0.01587746,-0.01615625,-0.1791346,0,0.1694644,-0.00240625,0.009283494,0,0.01421006
3523.9644,1.199067,569.7902,570.9893,-0.06376562,-0.02734425,0,0.03985048,-0.004640625,0.01601323,0,0.01587746,-0.01495312,-0.1791346,0,0.1694644,-0.00171875,0.009283494,0,0.01421006
3523.9653,0.5794686,571.0328,571.6123,-0.0639375,-0.02734425,0,0.03985048,-0.001375,0.01601323,0,0.01587746,-0.00825,-0.1791346,0,0.1694644,-0.00275,0.009283494,0,0.01421006
3523.9662,1.199067,569.7902,570.9893,-0.06582812,-0.02734425,0,0.03985048,-0.00171875,0.01601323,0,0.01587746,-0.009109375,-0.1791346,0,0.1694644,-0.0034375,0.009283494,0,0.01421006
3523.9671,3.057864,569.1689,572.2268,-0.0639375,-0.02734425,0,0.03985048,0.000859375,0.01601323,0,0.01587746,-0.00790625,-0.1791346,0,0.1694644,-0.00103125,0.009283494,0,0.01421006
3523.968,3.057864,568.5477,571.6055,-0.05534375,-0.02734425,0,0.03985048,-0.0048125,0.01601323,0,0.01587746,6.25E-16,-0.1791346,0,0.1694644,-0.00103125,0.009283494,0,0.01421006
3523.9689,3.057864,568.5477,571.6047,-0.04004687,-0.02734425,0,0.03985048,-0.0006875,0.01601323,0,0.01587746,0.01357813,-0.1791346,0,0.1694644,0.00103125,0.009283494,0,0.01421006
3523.9698,3.677462,567.9264,571.6039,-0.048125,-0.02734425,0,0.03985048,0.001546875,0.01601323,0,0.01587746,0.007734375,-0.1791346,0,0.1694644,-0.00309375,0.009283494,0,0.01421006
3523.9707,3.057864,568.5477,571.6055,-0.04864062,-0.02734425,0,0.03985048,-0.0089375,0.01601323,0,0.01587746,-0.0275,-0.1791346,0,0.1694644,-0.01203125,0.009283494,0,0.01421006
3523.9716,1.818666,569.1689,570.9876,-0.04365625,-0.02734425,0,0.03985048,-0.00584375,0.01601323,0,0.01587746,-0.01495312,-0.1791346,0,0.1694644,-0.0034375,0.009283494,0,0.01421006
3523.9725,0.5794686,569.1689,569.7484,-0.03953125,-0.02516435,0,0.03985048,-0.005671875,0.01829153,0,0.01587746,-0.01323437,-0.1729573,0,0.1694644,-0.001203125,0.01307234,0,0.01421006
3523.9734,-0.04013017,570.4115,570.3714,-0.03471875,-0.01886595,0,0.03985048,-0.01065625,0.01204358,0,0.01587746,-0.01735937,-0.180063,0,0.1694644,-0.00275,0.01022932,0,0.01421006
3523.9743,1.199067,569.7902,570.9893,-0.0226875,-0.007789383,0,0.03985048,-0.01460937,0.008163402,0,0.01587746,-0.009453125,-0.1707935,0,0.1694644,-0.002234375,0.01167821,0,0.01421006
3523.9752,1.818666,567.3051,569.1238,-0.00721875,0.008025854,0,0.03985048,-0.007734375,0.01623029,0,0.01587746,0.00034375,-0.1611027,0,0.1694644,0.001890625,0.01520552,0,0.01421006
3523.9761,2.438265,566.0625,568.5008,0.00790625,0.02347849,0,0.03985048,-0.000515625,0.02118419,0,0.01587746,0.0006875,-0.1612002,0,0.1694644,0.004296875,0.01800287,0,0.01421006
3523.977,2.438265,565.4412,567.8795,0.0006875,0.01526336,0,0.03985048,-0.01254687,0.01211036,0,0.01587746,-0.00790625,-0.1695692,0,0.1694644,0.0006875,0.01405341,0,0.01421006
3523.9779,2.438265,565.4412,566.9501,-0.01117187,0.004960322,0,0.03985048,-0.01151562,0.009942926,0,0.01587746,-0.01151562,-0.1726925,0,0.1694644,-0.001203125,0.01256056,0,0.01421006
3523.9788,0.5794686,565.4412,566.0207,-0.00103125,0.0132006,0,0.03985048,-0.0116875,0.01279281,0,0.01587746,-0.005671875,-0.1680034,0,0.1694644,0.004125,0.01741077,0,0.01421006
3523.9797,-0.04013017,566.0625,566.0224,0.00309375,0.01925814,0,0.03985048,-0.01357812,0.008318379,0,0.01587746,-0.0055,-0.1663589,0,0.1694644,0.001375,0.01513726,0,0.01421006
3523.9806,1.199067,565.4412,566.6403,0.0034375,0.01795521,0,0.03985048,-0.01701562,0.006893377,0,0.01587746,-0.009109375,-0.1708719,0,0.1694644,-0.002921875,0.01046594,0,0.01421006
3523.9815,2.438265,564.8199,567.2582,6.25E-16,0.01565492,0,0.03985048,-0.01357812,0.008879295,0,0.01587746,-0.0034375,-0.1657047,0,0.1694644,-0.002921875,0.01067195,0,0.01421006
3523.9824,3.677462,564.8199,568.4974,0.002234375,0.01733168,0,0.03985048,-0.01546875,0.007963875,0,0.01587746,0.01890625,-0.1409111,0,0.1694644,-0.000859375,0.01265946,0,0.01421006
3523.9833,3.677462,564.1987,567.8762,0.00309375,0.01829806,0,0.03985048,-0.0199375,0.0028965,0,0.01587746,0.01684375,-0.1473685,0,0.1694644,-0.001375,0.01224657,0,0.01421006
3523.9842,1.818666,564.1987,566.0173,0.0006875,0.01593174,0,0.03985048,-0.02251562,0.000609689,0,0.01587746,-0.0158125,-0.1742583,0,0.1694644,-0.00240625,0.01084521,0,0.01421006
3523.9851,0.5794686,564.1987,564.7781,0.0055,0.02093396,0,0.03985048,-0.01890625,0.004202981,0,0.01587746,-0.004296875,-0.1688937,0,0.1694644,-0.00309375,0.01103021,0,0.01421006
3523.986,0.5794686,564.1987,564.7781,0.01048438,0.02516673,0,0.03985048,-0.01959375,0.003261631,0,0.01587746,-0.0020625,-0.1612458,0,0.1694644,-0.00378125,0.008832266,0,0.01421006
3523.9869,0.5794686,564.1987,564.1569,0.0089375,0.02511994,0,0.03985048,-0.0226875,0.000685214,0,0.01587746,-0.001203125,-0.1641404,0,0.1694644,-0.0055,0.009226834,0,0.01421006
3523.9878,0.5794686,562.9561,563.5355,0.015125,0.0291055,0,0.03985048,-0.020625,0.001995197,0,0.01587746,-0.0075625,-0.1688794,0,0.1694644,6.25E-16,0.01222703,0,0.01421006
3523.9887,1.818666,562.3348,564.1534,0.02096875,0.03759083,0,0.03985048,-0.02079687,0.002750066,0,0.01587746,0.003609375,-0.1572714,0,0.1694644,0.002234375,0.01700154,0,0.01421006
3523.9896,2.438265,561.7135,564.1518,0.033,0.0469582,0,0.03985048,-0.017875,0.004658573,0,0.01587746,0.03042188,-0.1323911,0,0.1694644,0.01185938,0.02442613,0,0.01421006
3523.9905,2.438265,561.0922,563.5305,0.02801563,0.04421199,0,0.03985048,-0.0165,0.007036904,0,0.01587746,0.01254688,-0.14766,0,0.1694644,0.0055,0.01963382,0,0.01421006
3523.9914,1.818666,560.4709,562.2896,0.02217188,0.03690491,0,0.03985048,-0.01460937,0.008024612,0,0.01587746,0.00034375,-0.1622964,0,0.1694644,-0.000515625,0.01280983,0,0.01421006
3523.9923,1.199067,561.0922,562.2913,0.017875,0.03312948,0,0.03985048,-0.01684375,0.006520768,0,0.01587746,0.01289063,-0.1481558,0,0.1694644,0.001375,0.01481834,0,0.01421006
3523.9932,1.199067,561.7135,562.9126,-0.0006875,0.01493697,0,0.03985048,-0.0213125,0.001540978,0,0.01587746,0.00103125,-0.1604091,0,0.1694644,-0.002234375,0.0115503,0,0.01421006
3523.9941,1.199067,561.0922,562.2913,-0.0165,-0.001930315,0,0.03985048,-0.0199375,0.003184817,0,0.01587746,-0.007390625,-0.1696865,0,0.1694644,-0.00378125,0.009514304,0,0.01421006
3523.995,1.199067,561.0922,562.9092,-0.00790625,0.008117212,0,0.03985048,-0.01615625,0.006936002,0,0.01587746,-0.00171875,-0.1620944,0,0.1694644,-0.002921875,0.01071766,0,0.01421006
3523.9959,2.438265,560.4709,563.2181,0.006703125,0.0210909,0,0.03985048,-0.02165625,0.001258433,0,0.01587746,-0.0158125,-0.1788852,0,0.1694644,-0.00584375,0.007787698,0,0.01421006
3523.9968,3.677462,559.8496,563.5272,0.01048438,0.02661299,0,0.03985048,-0.02234375,0.000901409,0,0.01587746,-0.03025,-0.1901495,0,0.1694644,-0.00721875,0.006027843,0,0.01421006
3523.9977,3.677462,558.6071,562.2845,0.0254375,0.03963337,0,0.03985048,-0.0171875,0.005644022,0,0.01587746,-0.01340625,-0.1767074,0,0.1694644,-0.007734375,0.006222858,0,0.01421006
3523.9986,1.818666,558.6071,560.4257,0.02165625,0.03817183,0,0.03985048,-0.02045312,0.002804373,0,0.01587746,-0.007046875,-0.1669287,0,0.1694644,-0.0048125,0.008245103,0,0.01421006
3523.9995,0.5794686,557.9858,558.5652,0.01151563,0.02513804,0,0.03985048,-0.01925,0.00362315,0,0.01587746,-0.001375,-0.1644795,0,0.1694644,-0.004296875,0.009701526,0,0.01421006
3524.0004,1.199067,557.3645,558.5636,-0.002234375,0.01489999,0,0.03985048,-0.01684375,0.006350778,0,0.01587746,-0.00515625,-0.1654739,0,0.1694644,-0.00378125,0.00934671,0,0.01421006
3524.0013,2.438265,557.3645,559.8028,-0.03334375,-0.02016045,0,0.03985048,-0.01873437,0.004190855,0,0.01587746,-0.0034375,-0.1658242,0,0.1694644,-0.0034375,0.01043652,0,0.01421006
3524.0022,3.057864,556.1219,559.1798,-0.06479687,-0.0476603,0,0.03985048,-0.01684375,0.006332293,0,0.01587746,0.00275,-0.1585482,0,0.1694644,-0.0020625,0.01120225,0,0.01421006
3524.0031,3.677462,554.2581,557.9355,-0.06445312,-0.05070471,0,0.03985048,-0.01409375,0.008825394,0,0.01587746,0.0034375,-0.1578097,0,0.1694644,-0.002921875,0.01081466,0,0.01421006
3524.004,3.677462,554.2581,557.3143,-0.07803125,-0.0620454,0,0.03985048,-0.0144375,0.008734897,0,0.01587746,-0.002921875,-0.1652993,0,0.1694644,-0.007046875,0.006373384,0,0.01421006
3524.0049,3.677462,553.6368,557.0045,-0.05757812,-0.04226951,0,0.03985048,-0.0130625,0.009924024,0,0.01587746,-0.004296875,-0.1648092,0,0.1694644,-0.01151562,0.002018811,0,0.01421006
3524.0058,3.057864,553.6368,556.6946,-0.02028125,-0.005964706,0,0.03985048,-0.0144375,0.008560785,0,0.01587746,6.25E-16,-0.1625008,0,0.1694644,-0.00653125,0.00714691,0,0.01421006
3524.0067,1.818666,554.8793,556.698,-0.02320312,-0.006424466,0,0.03985048,-0.017875,0.005401508,0,0.01587746,-0.000859375,-0.1620236,0,0.1694644,-0.002234375,0.01100991,0,0.01421006
3524.0076,1.818666,554.8793,556.698,-0.0323125,-0.01900864,0,0.03985048,-0.01753125,0.00510312,0,0.01587746,-0.0034375,-0.1645447,0,0.1694644,-0.0075625,0.006384385,0,0.01421006
3524.0085,3.057864,554.2581,557.3159,-0.05603125,-0.03879545,0,0.03985048,-0.01598437,0.007643,0,0.01587746,0.00171875,-0.161312,0,0.1694644,-0.006875,0.006195701,0,0.01421006
3524.0094,4.297061,552.3942,556.6913,-0.07253125,-0.05921753,0,0.03985048,-0.015125,0.007275264,0,0.01587746,0.0199375,-0.1392883,0,0.1694644,-0.001203125,0.01276279,0,0.01421006
3524.0103,6.155858,551.1516,557.3075,-0.07975,-0.06279872,0,0.03985048,-0.01873437,0.004929022,0,0.01587746,0.02096875,-0.1434299,0,0.1694644,6.25E-16,0.01322556,0,0.01421006
3524.0112,10.49305,549.909,560.4021,-0.07132812,-0.0577215,0,0.03985048,-0.01839062,0.004192016,0,0.01587746,-0.01220312,-0.1710142,0,0.1694644,-0.0055,0.008177292,0,0.01421006
3524.0121,16.68904,549.2878,565.9768,-0.05723437,-0.04038829,0,0.03985048,-0.01942187,0.003888988,0,0.01587746,-0.006875,-0.1705433,0,0.1694644,-0.00446875,0.009085783,0,0.01421006
3524.013,16.68904,549.2878,572.7907,-0.04657812,-0.03312542,0,0.03985048,-0.01323437,0.009760831,0,0.01587746,-0.00275,-0.1633302,0,0.1694644,-0.00171875,0.01169734,0,0.01421006
3524.0139,24.12422,548.6665,576.1993,-0.06582812,-0.04864151,0,0.03985048,-0.009109375,0.01385543,0,0.01587746,-0.004640625,-0.1659253,0,0.1694644,-0.0020625,0.01158713,0,0.01421006
3524.0148,30.32021,549.2878,579.608,-0.06720312,-0.05408816,0,0.03985048,-0.01323437,0.009941357,0,0.01587746,-0.009796875,-0.1727815,0,0.1694644,-0.0034375,0.01010223,0,0.01421006
3524.0157,34.6574,547.4239,582.0813,-0.05792187,-0.04062759,0,0.03985048,-0.011,0.01198043,0,0.01587746,-0.0006875,-0.160116,0,0.1694644,-0.0061875,0.007140563,0,0.01421006
3524.0166,38.37499,545.56,583.9351,-0.03282812,-0.01939211,0,0.03985048,-0.008421875,0.0145932,0,0.01587746,0.03334375,-0.1305841,0,0.1694644,-0.003953125,0.01002278,0,0.01421006
3524.0175,39.61419,543.6962,583.3104,-0.01323437,0.003263956,0,0.03985048,-0.012375,0.01080614,0,0.01587746,0.01907813,-0.1403199,0,0.1694644,-0.000859375,0.01204388,0,0.01421006
3524.0184,39.61419,543.0749,582.6891,0.001375,0.01601716,0,0.03985048,-0.01289062,0.009999132,0,0.01587746,0.01357813,-0.1497781,0,0.1694644,-0.00446875,0.009793376,0,0.01421006
3524.0193,38.99459,543.0749,582.0695,0.00240625,0.01748985,0,0.03985048,-0.008078125,0.01507612,0,0.01587746,0.02767188,-0.1323764,0,0.1694644,0.002234375,0.01508705,0,0.01421006
3524.0202,38.37499,543.6962,582.0712,6.25E-16,0.016017,0,0.03985048,-0.007390625,0.01568106,0,0.01587746,0.02853125,-0.1346065,0,0.1694644,0.0048125,0.01885701,0,0.01421006
3524.0211,38.37499,543.6962,582.0712,-0.006875,0.007092047,0,0.03985048,-0.01701562,0.005874759,0,0.01587746,0.0130625,-0.1464785,0,0.1694644,0.00275,0.01605422,0,0.01421006
3524.022,38.37499,543.6962,581.4465,-0.02251562,-0.005772414,0,0.03985048,-0.0165,0.006796604,0,0.01587746,0.00825,-0.1560719,0,0.1694644,0.0020625,0.01552115,0,0.01421006
3524.0229,39.61419,541.8323,581.7546,-0.02114062,-0.007514512,0,0.03985048,-0.009625,0.01318974,0,0.01587746,-0.00240625,-0.160496,0,0.1694644,0.00034375,0.0142283,0,0.01421006
3524.0238,41.47299,540.5897,582.0627,-0.01821875,-0.001414997,0,0.03985048,-0.02028125,0.002884758,0,0.01587746,-0.00653125,-0.1719837,0,0.1694644,-0.0006875,0.01233871,0,0.01421006
3524.0247,42.09259,538.1046,580.1972,-0.00721875,0.006482186,0,0.03985048,-0.0240625,-0.000928342,0,0.01587746,-0.03110937,-0.1889565,0,0.1694644,-0.00034375,0.01370887,0,0.01421006
3524.0256,41.47299,536.2407,577.7137,-0.00515625,0.01159056,0,0.03985048,-0.01804687,0.00469922,0,0.01587746,-0.02217187,-0.1866999,0,0.1694644,0.002578125,0.01576003,0,0.01421006
3524.0265,40.23379,536.2407,576.4745,-0.00103125,0.01266017,0,0.03985048,-0.02165625,0.001868774,0,0.01587746,-0.031625,-0.191475,0,0.1694644,0.004125,0.01770793,0,0.01421006
3524.0274,41.47299,536.862,578.335,-0.00515625,0.01164523,0,0.03985048,-0.02217187,0.000336139,0,0.01587746,-0.03265625,-0.1945685,0,0.1694644,0.001546875,0.01543596,0,0.01421006
3524.0283,47.04938,536.2407,583.2901,-0.00446875,0.009220759,0,0.03985048,-0.0226875,0.000845683,0,0.01587746,-0.02320312,-0.1856074,0,0.1694644,-0.003953125,0.008816661,0,0.01421006
3524.0292,56.34336,534.9982,591.3415,0.000859375,0.01749116,0,0.03985048,-0.022,0.000746245,0,0.01587746,-0.02389062,-0.1839334,0,0.1694644,-0.005671875,0.008978706,0,0.01421006
3524.0301,65.01774,532.513,597.5308,0.001546875,0.01564094,0,0.03985048,-0.02303125,6.40E-05,0,0.01587746,-0.009625,-0.1728493,0,0.1694644,-0.001203125,0.01100012,0,0.01421006
3524.031,65.01774,532.513,604.9626,-0.01460937,0.001409388,0,0.03985048,-0.02526562,-0.001964862,0,0.01587746,-0.001375,-0.1616177,0,0.1694644,-0.006875,0.008044301,0,0.01421006
3524.0319,73.69212,531.2704,609.6096,0.0020625,0.0168531,0,0.03985048,-0.01753125,0.004988068,0,0.01587746,0.008078125,-0.1543178,0,0.1694644,-0.004125,0.008144112,0,0.01421006
3524.0328,82.98611,531.2704,614.2565,0.01323438,0.02866525,0,0.03985048,-0.01203125,0.01178286,0,0.01587746,0.0158125,-0.1452842,0,0.1694644,-0.004125,0.01042683,0,0.01421006
3524.0337,92.28009,531.2704,623.5505,0.007046875,0.02213737,0,0.03985048,-0.01357812,0.008564292,0,0.01587746,0.017875,-0.1441959,0,0.1694644,0.00275,0.01559726,0,0.01421006
3524.0346,98.47608,531.8917,630.3678,0.01839063,0.03392933,0,0.03985048,-0.01220312,0.01179938,0,0.01587746,0.01357813,-0.1469784,0,0.1694644,0.006703125,0.02058857,0,0.01421006
3524.0355,100.9545,532.513,633.4675,0.02492188,0.0395154,0,0.03985048,0.00103125,0.0232173,0,0.01587746,0.020625,-0.1427901,0,0.1694644,0.0034375,0.0169325,0,0.01421006
3524.0364,105.2917,530.6491,635.9409,0.0199375,0.03622886,0,0.03985048,0.005328125,0.02902938,0,0.01587746,0.03403125,-0.1247833,0,0.1694644,-0.00034375,0.01298417,0,0.01421006
3524.0373,113.966,528.164,642.1301,0.007734375,0.02156033,0,0.03985048,0.0020625,0.0248129,0,0.01587746,0.02904688,-0.1358914,0,0.1694644,-0.00275,0.01119266,0,0.01421006
3524.0382,126.358,526.3001,652.6581,-0.02698437,-0.01016933,0,0.03985048,-0.0020625,0.020854,0,0.01587746,-0.007734375,-0.165847,0,0.1694644,-0.004640625,0.008319965,0,0.01421006
3524.0391,138.1304,525.0576,663.188,-0.01392187,-0.000203555,0,0.03985048,0.00171875,0.02537374,0,0.01587746,0.00584375,-0.1586043,0,0.1694644,-0.006875,0.00739973,0,0.01421006
3524.04,138.1304,525.0576,671.2427,0.0116875,0.02811322,0,0.03985048,0.00378125,0.02581862,0,0.01587746,0.007390625,-0.1524631,0,0.1694644,-0.0055,0.007132384,0,0.01421006
3524.0409,146.1852,525.0576,676.2012,0.008078125,0.02259945,0,0.03985048,0.00034375,0.02468042,0,0.01587746,0.00378125,-0.1579929,0,0.1694644,-0.007734375,0.006856098,0,0.01421006
3524.0418,154.8596,526.3001,681.1597,0.007390625,0.02280044,0,0.03985048,0.008421875,0.03012234,0,0.01587746,0.0089375,-0.1539822,0,0.1694644,-0.006015625,0.006362222,0,0.01421006
3524.0427,162.2947,526.9214,689.2162,0.01254688,0.02802438,0,0.03985048,0.00653125,0.03077808,0,0.01587746,0.01014063,-0.1487793,0,0.1694644,-0.00721875,0.007495932,0,0.01421006
3524.0436,170.3495,525.6789,696.0284,0.009109375,0.02387438,0,0.03985048,0.008078125,0.03027911,0,0.01587746,0.02457813,-0.1404762,0,0.1694644,-0.0034375,0.008998789,0,0.01421006
3524.0445,177.7847,523.1937,700.9785,0.01925,0.03490052,0,0.03985048,0.0061875,0.0296446,0,0.01587746,0.008765625,-0.1489863,0,0.1694644,-0.0061875,0.008286338,0,0.01421006
3524.0454,182.7415,521.9511,704.6926,0.02114063,0.03624576,0,0.03985048,-0.00309375,0.01999203,0,0.01587746,0.01323438,-0.1520182,0,0.1694644,-0.003953125,0.008836676,0,0.01421006
3524.0463,183.9807,521.9511,705.9318,0.011,0.02590199,0,0.03985048,-0.01082812,0.01185998,0,0.01587746,0.03059375,-0.1277152,0,0.1694644,-0.00515625,0.008982408,0,0.01421006
3524.0472,185.2199,522.5724,707.7923,0.01289063,0.02895842,0,0.03985048,-0.011,0.0125635,0,0.01587746,0.04210938,-0.1221332,0,0.1694644,-0.002234375,0.01072366,0,0.01421006
3524.0481,185.8395,522.5724,708.4119,0.00240625,0.01635857,0,0.03985048,-0.011,0.01158385,0,0.01587746,0.03059375,-0.1288843,0,0.1694644,-0.00103125,0.01322111,0,0.01421006
3524.049,185.8395,522.5724,707.7872,-0.01323437,0.003561648,0,0.03985048,-0.01753125,0.005789907,0,0.01587746,0.03179688,-0.1313084,0,0.1694644,6.25E-16,0.01252762,0,0.01421006
3524.0499,187.0787,520.7086,706.2349,-0.0061875,0.007377827,0,0.03985048,-0.02217187,0.00087853,0,0.01587746,0.0075625,-0.1529889,0,0.1694644,-0.001546875,0.01338426,0,0.01421006
3524.0508,186.4591,518.2234,704.6825,-0.02440625,-0.007588681,0,0.04000052,-0.02801562,-0.0052148,0,0.01590731,-0.00275,-0.164812,0,0.1696585,-0.0006875,0.01106863,0,0.01425198
3524.0517,184.6003,516.9808,701.5812,-0.02629687,-0.01246185,0,0.04015062,-0.02990625,-0.006452284,0,0.01595207,0.01821875,-0.1434091,0,0.1698473,-0.007734375,0.007865003,0,0.01429336
3524.0526,183.3611,517.6021,700.9633,-0.01220312,0.004165515,0,0.04030082,-0.02578125,-0.00315172,0,0.01598192,0.03110938,-0.1298604,0,0.1700337,-0.0020625,0.00930365,0,0.01433461
3524.0535,180.2631,518.2234,698.4865,-0.00034375,0.0140025,0,0.04045135,-0.03110937,-0.007750116,0,0.01602668,0.033,-0.129584,0,0.1702196,-0.005328125,0.01027601,0,0.01437583
3524.0544,176.5455,517.6021,694.1476,0.01357813,0.02946294,0,0.04060203,-0.0323125,-0.009370541,0,0.01605653,0.02732813,-0.1330643,0,0.170405,-0.000515625,0.01124476,0,0.01441706
3524.0553,172.8279,515.7383,688.5662,0.0165,0.03128814,0,0.04075177,-0.02973437,-0.006802954,0,0.01610129,-0.008078125,-0.1706046,0,0.1705894,-0.00790625,0.006979336,0,0.0144587
3524.0562,168.4907,514.4957,682.9864,-0.0055,0.009951162,0,0.04090013,-0.03110937,-0.007752217,0,0.01614606,-0.0385,-0.1997473,0,0.1707676,-0.007046875,0.005627371,0,0.0145024
3524.0571,164.1535,513.8744,678.028,-0.02698437,-0.01172561,0,0.04104887,-0.02526562,-0.002626124,0,0.01617591,-0.02010937,-0.1810793,0,0.1709344,-0.002234375,0.01167816,0,0.01454771
3524.058,164.1535,513.8744,672.4499,-0.04967187,-0.03479318,0,0.04119786,-0.02423437,-0.000771584,0,0.01622067,-0.01048437,-0.1736116,0,0.1710935,-0.007734375,0.005852217,0,0.01459302
3524.0589,159.1968,513.2531,670.2812,-0.05585937,-0.03992754,0,0.04134488,-0.0281875,-0.005457839,0,0.01626544,-0.02251562,-0.1818891,0,0.1712468,-0.0103125,0.002827332,0,0.01463939
3524.0598,154.8596,513.2531,668.1127,-0.04004687,-0.02590313,0,0.0414891,-0.0240625,-0.000852415,0,0.01631021,-0.0144375,-0.178201,0,0.171393,-0.0048125,0.009357301,0,0.01468759
3524.0607,149.9028,512.0105,661.9133,-0.03471875,-0.0180524,0,0.04163238,-0.01735937,0.005716242,0,0.01635497,-0.007734375,-0.1679502,0,0.1715323,-0.009796875,0.002982754,0,0.01473643
3524.0616,145.5656,510.1467,655.7123,-0.026125,-0.01258475,0,0.0417762,-0.0144375,0.008411898,0,0.01639974,0.006703125,-0.1545996,0,0.1716671,-0.01495312,-0.000668855,0,0.01478611
3524.0625,142.4676,508.9041,651.3717,-0.02492187,-0.007858593,0,0.0419214,-0.006359375,0.01702595,0,0.01644451,0.0295625,-0.1343501,0,0.1717996,-0.009453125,0.003468016,0,0.01483675
3524.0634,139.3696,507.0402,646.4098,-0.008078125,0.005334205,0,0.04206836,0.002921875,0.02555828,0,0.01648927,0.044,-0.113177,0,0.1719312,-0.015125,-0.001224186,0,0.01488824
3524.0643,137.5108,505.7977,643.3085,0.00446875,0.02137206,0,0.04221674,0.001203125,0.02468732,0,0.01653404,0.02251563,-0.1448753,0,0.1720643,-0.0171875,-0.003696282,0,0.01494046
3524.0652,135.652,505.1764,640.8284,-0.0020625,0.01175519,0,0.04236504,-0.001203125,0.02144465,0,0.01656388,-0.03609375,-0.1914173,0,0.172195,-0.01598437,-0.00274083,0,0.01499279
3524.0661,133.1736,504.5551,637.7287,-0.0089375,0.007387517,0,0.04251348,0.000515625,0.02389502,0,0.01660865,-0.02578125,-0.192862,0,0.1723161,-0.01770312,-0.003603007,0,0.01504519
3524.067,133.1736,504.5551,635.8682,0.00240625,0.01687178,0,0.04266206,0.003609375,0.02642703,0,0.01665342,-0.03575,-0.1935186,0,0.1724273,-0.0158125,-0.003001607,0,0.01509773
3524.0679,131.9344,503.9338,635.5593,-0.01426562,0.001450797,0,0.04281032,-0.00378125,0.01939044,0,0.01668326,-0.022,-0.1851622,0,0.1725286,-0.01890625,-0.004635949,0,0.01515034
3524.0688,130.6952,504.5551,635.2503,-0.02217187,-0.00721953,0,0.04295884,-0.011,0.01204319,0,0.01671311,-0.0185625,-0.1806669,0,0.1726214,-0.01735937,-0.004451403,0,0.01520298
3524.0697,130.0756,503.9338,634.0094,-0.01564062,-0.0002329,0,0.04310745,-0.0089375,0.01400231,0,0.01674295,-0.001375,-0.1608586,0,0.1727065,-0.01375,0.000232296,0,0.01525568
3524.0706,128.8364,501.4487,630.285,-0.03007812,-0.01502512,0,0.0432564,-0.01185937,0.01141449,0,0.0167728,0.06978125,-0.09457304,0,0.172787,-0.00825,0.005003684,0,0.01530847
3524.0715,126.9776,500.2061,627.1837,-0.04451562,-0.02903087,0,0.04340641,-0.01959375,0.003125444,0,0.01681756,0.0735625,-0.08526141,0,0.1728709,-0.01014062,0.003582647,0,0.01536133
3524.0724,126.358,498.9635,625.3215,-0.0433125,-0.02846686,0,0.0435588,-0.02217187,0.001296913,0,0.01684741,0.06290625,-0.1008866,0,0.1729589,-0.01323437,9.47E-05,0,0.01541432
3524.0733,123.8796,497.7209,621.6005,-0.0378125,-0.02209162,0,0.04371477,-0.02423437,-0.001661153,0,0.01687725,0.06857813,-0.09124676,0,0.1730496,-0.006875,0.006973093,0,0.01546737
3524.0742,120.7816,496.4784,617.26,-0.02921875,-0.0145366,0,0.04387365,-0.033,-0.009467612,0,0.01692202,0.05465625,-0.1085092,0,0.1731432,-0.002578125,0.01049111,0,0.01552043
3524.0751,120.7816,496.4784,617.26,-0.03764062,-0.0219435,0,0.04403418,-0.03351562,-0.01088984,0,0.01695186,0.045375,-0.1142001,0,0.173239,-0.009796875,0.004335388,0,0.01557302
3524.076,120.7816,496.4784,617.8779,-0.03454687,-0.01959051,0,0.04419452,-0.02835937,-0.005024136,0,0.01698171,0.05173438,-0.1125846,0,0.1733354,-0.009796875,0.003075142,0,0.01562573
3524.0769,122.0208,495.8571,617.2549,-0.01684375,-0.001710864,0,0.04435446,-0.02646875,-0.003501637,0,0.01702647,0.03832813,-0.1196814,0,0.1734319,-0.009453125,0.004725368,0,0.01567888
3524.0778,123.26,493.3719,616.632,-0.0171875,-0.001419742,0,0.04451466,-0.03248437,-0.009594858,0,0.01705632,0.03248438,-0.1330493,0,0.1735277,-0.007390625,0.005573334,0,0.0157326
3524.0787,123.8796,490.8868,614.7664,-0.0116875,0.002506329,0,0.04467463,-0.03746875,-0.0140264,0,0.01710109,-0.01546875,-0.1733286,0,0.1736219,-0.007734375,0.006289542,0,0.01578647
3524.0796,122.6404,490.2655,612.9059,-0.01082812,0.005848698,0,0.04483416,-0.03660937,-0.0141277,0,0.01713093,-0.02560937,-0.1898763,0,0.1737092,-0.0020625,0.01102221,0,0.01584037
3524.0805,121.4012,491.5081,612.9093,-0.03798437,-0.02446337,0,0.04499323,-0.03489062,-0.01120859,0,0.01716077,-0.01323437,-0.173638,0,0.1737863,0.00275,0.01676287,0,0.01589423
3524.0814,121.4012,491.5081,612.9093,-0.0735625,-0.05662668,0,0.04515119,-0.02921875,-0.00673531,0,0.01720554,-0.003609375,-0.1646733,0,0.173856,-0.000859375,0.01211305,0,0.01594709
3524.0823,123.26,490.8868,614.1468,-0.1024375,-0.08866825,0,0.0453035,-0.02629687,-0.002873249,0,0.01723539,-0.001546875,-0.1649611,0,0.1739198,-0.004984375,0.009217441,0,0.01599934
3524.0832,123.26,490.2655,613.5255,-0.1459219,-0.1297704,0,0.04544219,-0.01753125,0.005429023,0,0.01726523,0.00171875,-0.1572738,0,0.1739775,6.25E-16,0.01279068,0,0.01605128
3524.0841,123.26,490.2655,613.5255,-0.1560625,-0.1411243,0,0.04555202,-0.007390625,0.01543939,0,0.01731,0.01185938,-0.1522745,0,0.1740285,-0.00309375,0.01120153,0,0.01610265
3524.085,123.26,490.2655,611.66,-0.1426562,-0.1278477,0,0.04562815,-0.001546875,0.02200546,0,0.01733984,-0.01959375,-0.1791272,0,0.1740744,-0.0048125,0.008013685,0,0.0161536
3524.0859,123.8796,487.7803,610.7272,-0.1130937,-0.09692685,0,0.04567675,0.007046875,0.02940927,0,0.01736969,-0.03076562,-0.1936517,0,0.1741128,-0.00721875,0.006934994,0,0.01620437
3524.0868,124.4992,485.2952,609.7944,-0.07115625,-0.05719202,0,0.04570983,0.01185938,0.03567933,0,0.01739953,-0.02354687,-0.1843086,0,0.1741406,-0.00171875,0.01128671,0,0.01625505
3524.0877,123.8796,485.2952,609.1748,-0.06548437,-0.04899229,0,0.04573832,0.01529688,0.0376198,0,0.01741445,-0.02096875,-0.1833254,0,0.1741589,0.00240625,0.01641706,0,0.01630516
3524.0886,124.4992,484.6739,609.1731,-0.07854687,-0.06438362,0,0.04576357,0.01529688,0.03896315,0,0.01742937,-0.02028125,-0.1805285,0,0.1741684,0.004296875,0.01737753,0,0.01635408
3524.0895,126.9776,484.0526,611.0302,-0.1081094,-0.09215917,0,0.04578246,0.01735938,0.03996044,0,0.0174443,-0.0254375,-0.1892268,0,0.17417,0.009453125,0.02343517,0,0.0164019
3524.0904,129.456,482.1888,611.6448,-0.1316562,-0.1169085,0,0.045788,0.015125,0.03847378,0,0.0174443,-0.0433125,-0.2017402,0,0.1741611,0.01323438,0.02637966,0,0.01644766
3524.0913,131.3148,480.3249,611.6397,-0.1204844,-0.1048605,0,0.0457719,0.0158125,0.0386978,0,0.0174443,-0.0543125,-0.2195961,0,0.174138,0.01082813,0.0246192,0,0.0164914
3524.0922,131.9344,479.7036,611.638,-0.09040625,-0.07580392,0,0.04573837,0.01357813,0.03672397,0,0.01742937,-0.08439062,-0.2423038,0,0.1740982,0.01323438,0.02675915,0,0.01653342
3524.0931,132.554,480.3249,612.8789,-0.07167187,-0.05537393,0,0.045696,0.004640625,0.02763034,0,0.01741445,-0.06754687,-0.2320662,0,0.1740375,0.01254688,0.02578602,0,0.01657273
3524.094,132.554,480.3249,613.4985,-0.05276562,-0.03916915,0,0.04564922,0.004125,0.02725414,0,0.01739953,-0.06204687,-0.221888,0,0.1739589,0.01289063,0.02703966,0,0.01660947
3524.0949,133.1736,480.3249,613.8083,-0.03420312,-0.01688744,0,0.04559992,0.008421875,0.03136266,0,0.01738461,-0.06084375,-0.2227862,0,0.1738761,0.01684375,0.02953971,0,0.0166431
3524.0958,133.7932,480.3249,614.1181,0.0048125,0.01780011,0,0.0455501,6.25E-16,0.02321296,0,0.01735476,-0.05173437,-0.2140895,0,0.1737869,0.0144375,0.02890352,0,0.01667281
3524.0967,135.0324,479.7036,614.736,0.04142188,0.05864465,0,0.04549976,6.25E-16,0.02285598,0,0.01732492,-0.0419375,-0.2020549,0,0.1736841,0.0185625,0.03124768,0,0.01669878
3524.0976,138.1304,477.2185,615.3489,0.07614063,0.0900702,0,0.04544376,0.0089375,0.03220153,0,0.01731,-0.02354687,-0.1867166,0,0.1735702,0.01667188,0.03086587,0,0.0167202
3524.0985,140.6088,475.3546,615.9634,0.08628125,0.1018748,0,0.04537406,0.006015625,0.02889047,0,0.01726523,-0.0336875,-0.1938908,0,0.1734484,0.01925,0.03236858,0,0.01673716
3524.0994,141.2284,474.7333,615.9617,0.08164063,0.09754014,0,0.04528738,0.002578125,0.02572268,0,0.01723539,-0.042625,-0.2052822,0,0.1733167,0.020625,0.03440234,0,0.01674921
3524.1003,141.848,474.7333,616.5813,0.06685938,0.0806254,0,0.04518515,0.004125,0.02723827,0,0.01719062,-0.03815625,-0.1986592,0,0.1731718,0.01804688,0.03141009,0,0.01675578
3524.1012,143.7068,475.3546,619.0614,0.05328125,0.07040612,0,0.04507216,-0.0020625,0.02072523,0,0.01714585,-0.03592187,-0.1990368,0,0.173015,0.02028125,0.03406139,0,0.01675788
3524.1021,147.4244,475.3546,622.7789,0.0543125,0.06771277,0,0.04495128,-0.007734375,0.0158213,0,0.01710109,-0.04778125,-0.2068392,0,0.172846,0.02217188,0.03531676,0,0.0167547
3524.103,147.4244,475.3546,623.3901,0.04296875,0.05959147,0,0.04482385,-0.008765625,0.01355794,0,0.01705632,-0.0488125,-0.2141254,0,0.1726635,0.02045313,0.03454964,0,0.01674585
3524.1039,151.142,472.2482,623.3876,0.04915625,0.0636759,0,0.04469269,-0.01529687,0.008648856,0,0.01701155,-0.06221875,-0.218931,0,0.1724654,0.02526563,0.03814524,0,0.01673161
3524.1048,153.0008,470.3843,623.3851,0.045375,0.06069362,0,0.04455619,-0.01667187,0.005430625,0,0.01696679,-0.08439062,-0.2514402,0,0.1722508,0.02475,0.0389503,0,0.0167107
3524.1057,153.6204,470.3843,624.0046,0.03385938,0.04943301,0,0.0444171,-0.02251562,0.001397959,0,0.01692202,-0.1273594,-0.2836176,0,0.1720134,0.02303125,0.03599705,0,0.01668274
3524.1066,154.8596,470.3843,625.2439,0.04090625,0.05574286,0,0.04427673,-0.02560937,-0.003196283,0,0.01687725,-0.0935,-0.2594379,0,0.1717447,0.01357813,0.0275608,0,0.01664873
3524.1075,157.338,471.0056,628.3435,0.04228125,0.05768541,0,0.0441318,-0.02853125,-0.005181159,0,0.01683248,-0.07528125,-0.2340332,0,0.1714505,0.01357813,0.02678239,0,0.01661114
3524.1084,158.5772,471.0056,629.5828,0.04640625,0.06189597,0,0.0439812,-0.03007812,-0.006949907,0,0.0167728,-0.05878125,-0.2214213,0,0.1711365,0.020625,0.03443475,0,0.01657034
3524.1093,161.6752,469.1417,630.8169,0.05259375,0.06719762,0,0.04382445,-0.031625,-0.009007965,0,0.01672803,-0.04554687,-0.2075788,0,0.1708058,0.0171875,0.03048603,0,0.01652388
3524.1102,164.1535,466.6566,630.8101,0.04228125,0.05831155,0,0.04366125,-0.03128125,-0.007554319,0,0.01668326,-0.03695312,-0.1970475,0,0.1704606,0.01357813,0.02729463,0,0.01647297
3524.1111,165.3927,464.7927,630.1855,0.03334375,0.04796133,0,0.0434946,-0.02801562,-0.005746167,0,0.0166385,-0.00515625,-0.1685803,0,0.1701013,0.0130625,0.02658888,0,0.01641871
3524.112,165.3927,464.7927,629.5625,0.01323438,0.02858926,0,0.04332671,-0.033,-0.009232743,0,0.01659373,-0.00721875,-0.1670592,0,0.1697329,0.0089375,0.02215801,0,0.01636127
3524.1129,166.0123,463.5501,631.423,0.00034375,0.01616978,0,0.04315975,-0.03248437,-0.009974687,0,0.01654896,-0.02010937,-0.1829988,0,0.1693574,0.007046875,0.02137732,0,0.0163014
3524.1138,168.4907,464.7927,633.2834,-0.004125,0.009799956,0,0.04299316,-0.0275,-0.004154095,0,0.0165042,-0.015125,-0.1757524,0,0.168972,0.0034375,0.01563213,0,0.01623935
3524.1147,171.5887,464.1714,635.7601,-0.0281875,-0.01110223,0,0.04282678,-0.02664062,-0.003672817,0,0.01645943,-0.0275,-0.1898197,0,0.1685776,-0.001375,0.01398768,0,0.01617625
3524.1156,174.0671,462.3076,636.3747,-0.02784375,-0.01469733,0,0.04266179,-0.031625,-0.008624957,0,0.01641466,-0.06135937,-0.2221237,0,0.1681717,0.004125,0.01554961,0,0.01611233
3524.1165,177.1651,460.4437,637.6088,-0.02457812,-0.00738258,0,0.04249856,-0.02629687,-0.003199875,0,0.0163699,-0.07940625,-0.2419404,0,0.1677487,-0.006359375,0.00927993,0,0.01604739
3524.1174,178.4043,459.2011,637.6055,-0.0336875,-0.02003073,0,0.04233621,-0.02045312,0.002662993,0,0.01632513,-0.07665625,-0.2372058,0,0.1673028,-0.00171875,0.01001845,0,0.01598249
3524.1183,179.6435,458.5798,638.2233,-0.04915625,-0.03288709,0,0.04217295,-0.0268125,-0.004018549,0,0.01628036,-0.05139062,-0.2137617,0,0.1668329,-0.00171875,0.01309551,0,0.01591821
3524.1192,181.5023,457.9586,639.4609,-0.04640625,-0.03173921,0,0.04200702,-0.02389062,-0.000405556,0,0.0162356,-0.03695312,-0.1982889,0,0.1663453,-0.0006875,0.01215823,0,0.01585415
3524.1201,182.7415,457.3373,640.0788,-0.04314062,-0.02768244,0,0.04183875,-0.0144375,0.008068172,0,0.01619083,-0.02664062,-0.1876092,0,0.1658436,-0.0061875,0.007533057,0,0.01579019
3524.121,182.7415,457.3373,641.9359,-0.0433125,-0.02823631,0,0.04166875,-0.02028125,0.003291809,0,0.01614606,-0.01546875,-0.1785363,0,0.1653277,-0.01082812,0.002836766,0,0.01572696
3524.1219,185.2199,456.716,642.2432,-0.0460625,-0.03059554,0,0.04149683,-0.01959375,0.003082823,0,0.01610129,-0.01048437,-0.1698214,0,0.1647993,-0.0055,0.007803653,0,0.0156648
3524.1228,187.6983,454.8521,642.5504,-0.03832812,-0.02354801,0,0.04132245,-0.017875,0.005290124,0,0.01605653,-0.01323437,-0.177422,0,0.1642604,-0.00790625,0.005803321,0,0.0156032
3524.1237,190.1767,451.7457,641.9224,-0.033,-0.01718309,0,0.04114644,-0.02028125,0.002948481,0,0.01601176,-0.04021875,-0.1991551,0,0.1637107,-0.01323437,0.000242415,0,0.01554197
3524.1246,190.7963,449.8818,640.6781,-0.04864062,-0.03402106,0,0.04096942,-0.0185625,0.004038406,0,0.01596699,-0.03145312,-0.1953955,0,0.1631464,-0.01357812,-6.06E-05,0,0.01548104
3524.1255,191.4159,448.6392,640.0552,-0.05792187,-0.04229325,0,0.04079004,-0.02148437,0.002193359,0,0.01592223,-0.0364375,-0.1959751,0,0.1625688,-0.01890625,-0.005376168,0,0.01542037
3524.1264,192.6551,448.6392,641.2943,-0.04142187,-0.02625065,0,0.0406073,-0.02165625,0.000702042,0,0.01589238,-0.03454687,-0.1979311,0,0.1619794,-0.0165,-0.002857504,0,0.01535995
3524.1273,195.1335,447.3967,642.5302,-0.03729687,-0.02243781,0,0.04042262,-0.01804687,0.005645395,0,0.01584762,-0.02990625,-0.1896572,0,0.1613778,-0.0116875,0.001609179,0,0.01529991
3524.1282,198.2315,446.1541,644.3856,-0.03265625,-0.01671458,0,0.04023643,-0.01564062,0.006893353,0,0.01580285,-0.06067187,-0.2242726,0,0.1607656,-0.01357812,0.000269514,0,0.01524052
3524.1291,200.0903,444.2902,644.3805,-0.017875,-0.003550402,0,0.04004954,-0.01959375,0.003822144,0,0.01575808,-0.08370312,-0.242992,0,0.1601355,-0.01065625,0.002590668,0,0.01518164
3524.13,200.0903,444.2902,643.1329,-0.015125,0.00096774,0,0.03986293,-0.01684375,0.005970636,0,0.01571332,-0.06135937,-0.225334,0,0.1594821,-0.01134375,0.002356436,0,0.01512296
3524.1309,201.9491,441.1838,643.4418,-0.00378125,0.01080488,0,0.03967682,-0.01426562,0.008950755,0,0.01566855,-0.07253125,-0.2319405,0,0.158809,-0.009796875,0.00373632,0,0.01506515
3524.1318,203.1883,440.5625,643.7508,-0.008765625,0.006771491,0,0.03949032,-0.01667187,0.006215601,0,0.01562378,-0.05465625,-0.2177861,0,0.1581135,-0.01048437,0.002931472,0,0.01500867
3524.1327,202.5687,440.5625,643.1312,-0.02028125,-0.00503585,0,0.03930296,-0.01632812,0.006951193,0,0.01557902,-0.03540625,-0.1963632,0,0.1573976,-0.01323437,0.000431872,0,0.01495335
3524.1336,203.1883,439.9412,643.1295,-0.01890625,-0.003942512,0,0.03911494,-0.01151562,0.01119496,0,0.01553425,-0.05517187,-0.216344,0,0.1566648,-0.00721875,0.006303133,0,0.01489888
3524.1345,205.6667,439.3199,644.9866,-0.028875,-0.01325694,0,0.03892697,-0.01323437,0.01029583,0,0.01548948,-0.0611875,-0.2240457,0,0.1559101,-0.009109375,0.004241477,0,0.01484487
3524.1354,208.1451,437.4561,645.6011,-0.034375,-0.01958062,0,0.03873883,-0.01254687,0.009885517,0,0.01544472,-0.0460625,-0.2058814,0,0.1551314,-0.01357812,0.00034152,0,0.01479177
3524.1363,210.0039,434.9709,644.9748,-0.03007812,-0.01439874,0,0.038551,-0.01203125,0.01176401,0,0.01539995,-0.03798437,-0.2013274,0,0.1543324,-0.01151562,0.001531876,0,0.0147399
3524.1372,210.6235,432.4858,643.1093,-0.02475,-0.01003397,0,0.03836383,-0.00859375,0.01362463,0,0.01535518,-0.0405625,-0.2007676,0,0.1535135,-0.0144375,-0.000459728,0,0.01468864
3524.1381,210.6235,431.8645,642.488,-0.01959375,-0.003726281,0,0.03817689,-0.00378125,0.02015199,0,0.01532534,-0.02904687,-0.1914067,0,0.1526732,-0.00996875,0.003324899,0,0.01463771
3524.139,210.6235,431.8645,643.1075,-0.02079687,-0.00637116,0,0.03799029,0.002234375,0.02441729,0,0.01528057,-0.03248437,-0.193758,0,0.151814,-0.01203125,0.001458259,0,0.01458727
3524.1399,211.2431,431.8645,643.7255,-0.020625,-0.004468817,0,0.03780477,-0.001375,0.02247959,0,0.01525073,-0.03042187,-0.1921586,0,0.1509372,-0.01684375,-0.002973741,0,0.01453684
3524.1408,213.7214,430.6219,644.3434,-0.015125,-0.000845224,0,0.03762059,0.00240625,0.02479033,0,0.01520596,-0.01959375,-0.1806205,0,0.1500425,-0.012375,0.000619076,0,0.01448658
3524.1417,216.1998,429.3793,645.5792,-0.02801562,-0.01195832,0,0.03743895,0.0034375,0.02696842,0,0.01516119,-0.01753125,-0.1804717,0,0.1491312,-0.0185625,-0.0044377,0,0.01443645
3524.1426,218.6782,427.5155,646.1937,-0.02440625,-0.009779905,0,0.03725806,0.00103125,0.02384913,0,0.01513135,-0.01529687,-0.1744106,0,0.1482034,-0.01907812,-0.006060985,0,0.01438628
3524.1435,219.9174,425.0303,644.9478,-0.01546875,0.000107024,0,0.03707713,0.0020625,0.02508855,0,0.01508658,-0.00275,-0.1679615,0,0.1472598,-0.01632812,-0.00234153,0,0.01433588
3524.1444,221.1566,425.0303,646.1869,-0.007046875,0.007948786,0,0.03689652,0.003609375,0.02698709,0,0.01504182,-0.01082812,-0.1681788,0,0.1463008,-0.02389062,-0.01058358,0,0.01428544
3524.1453,221.1566,426.2729,647.4296,0.008765625,0.02427337,0,0.03671551,0.001375,0.02387103,0,0.01499705,-0.002234375,-0.1685705,0,0.1453256,-0.03007812,-0.01611231,0,0.01423443
3524.1462,222.3958,425.6516,648.0475,0.02079688,0.03538164,0,0.03653441,-0.001546875,0.02231721,0,0.01495228,-0.01460937,-0.1722188,0,0.1443347,-0.02423437,-0.01094528,0,0.01418215
3524.1471,224.8742,423.1665,648.0407,0.02079688,0.03710004,0,0.03635276,-0.00103125,0.02112503,0,0.01489259,0.01323438,-0.1520191,0,0.1433271,-0.01907812,-0.00470348,0,0.01412961
3524.148,224.8742,423.1665,648.0356,-0.0006875,0.01288751,0,0.03616872,-0.003609375,0.02043197,0,0.01484783,0.04039063,-0.1191866,0,0.1423042,-0.01546875,-0.002585237,0,0.01407747
3524.1489,226.733,421.3026,647.4127,-0.0391875,-0.02201927,0,0.0359844,6.25E-16,0.02219034,0,0.01480306,0.0611875,-0.101882,0,0.14127,-0.0165,-0.001733639,0,0.01402559
3524.1498,227.9722,418.8175,646.7897,-0.02646875,-0.01326559,0,0.03579843,-0.00446875,0.01929669,0,0.01474337,0.07064063,-0.09059113,0,0.140227,-0.01289062,-0.000370582,0,0.01397408
3524.1507,228.5918,417.5749,646.1667,-0.0055,0.01139987,0,0.03561156,-0.008078125,0.01453958,0,0.01468368,0.09745313,-0.06422688,0,0.1391765,-0.01684375,-0.002229603,0,0.01392327
3524.1516,229.831,416.9536,646.7846,-0.01220312,0.002046289,0,0.03542398,-0.008078125,0.01512404,0,0.01463891,0.1404219,-0.0211489,0,0.1381224,-0.01598437,-0.003410691,0,0.01387324
3524.1525,231.6898,416.9536,648.6434,-0.03042187,-0.0149814,0,0.03523553,-0.00859375,0.01455218,0,0.01457923,0.1514219,-0.009874111,0,0.1370678,-0.01959375,-0.005678662,0,0.01382357
3524.1534,234.7878,417.5749,652.3627,-0.03007812,-0.01414001,0,0.03504605,-0.01203125,0.010725,0,0.01453446,0.1447188,-0.01670013,0,0.1360111,-0.02371875,-0.0109263,0,0.01377429
3524.1543,237.8858,416.3323,654.2181,-0.03265625,-0.01852538,0,0.03485598,-0.00996875,0.01339436,0,0.01447477,0.1545156,-0.006167019,0,0.1349508,-0.02629687,-0.01305887,0,0.01372584
3524.1552,240.3642,413.8472,654.2114,-0.04142187,-0.02468874,0,0.03466558,-0.005328125,0.01743279,0,0.01443,0.1524531,-0.009722831,0,0.1338872,-0.03179687,-0.01898984,0,0.01367778
3524.1561,241.6034,412.6046,654.208,-0.03317187,-0.01900087,0,0.03447621,-0.00825,0.01487596,0,0.01438524,0.1493594,-0.009785152,0,0.1328204,-0.04142187,-0.02836321,0,0.01362859
3524.157,241.6034,412.6046,651.7262,-0.03575,-0.01972518,0,0.03428849,-0.008421875,0.01468627,0,0.01432555,0.1591563,-0.004494275,0,0.1317537,-0.03729687,-0.02466333,0,0.01357506
3524.1579,240.3642,411.362,652.3467,-0.03385937,-0.01854457,0,0.03410059,-0.01082812,0.01190372,0,0.01428078,0.1252969,-0.03235701,0,0.1306908,-0.028875,-0.0155359,0,0.01351801
3524.1588,240.9838,411.9833,652.9671,-0.02801562,-0.01331896,0,0.03391227,-0.02217187,0.001209754,0,0.01423601,0.10175,-0.06291097,0,0.1296289,-0.03334375,-0.02054274,0,0.01345973
3524.1597,244.0818,411.362,655.4439,-0.02560937,-0.009387613,0,0.03372496,-0.02646875,-0.003789738,0,0.01417633,0.09745313,-0.06073903,0,0.1285653,-0.03953125,-0.02564936,0,0.01339889
3524.1606,247.1798,409.4982,656.678,-0.003265625,0.01079608,0,0.03353917,-0.02646875,-0.003237381,0,0.01413156,0.1110313,-0.05318613,0,0.1275008,-0.03317187,-0.01957765,0,0.01333441
3524.1615,248.419,406.3917,654.8107,0.01546875,0.03145863,0,0.03335296,-0.0295625,-0.006439684,0,0.01407187,0.088,-0.07277738,0,0.1264357,-0.03196875,-0.01746591,0,0.01326824
3524.1624,249.0386,404.5279,653.5664,0.02475,0.03918968,0,0.03316379,-0.03489062,-0.01215507,0,0.0140271,0.08559375,-0.07751969,0,0.1253671,-0.033,-0.01825377,0,0.01320077
3524.1633,249.6582,403.9066,653.5648,0.02698438,0.04205666,0,0.03297016,-0.037125,-0.01334892,0,0.01396741,0.1313125,-0.03223406,0,0.1242931,-0.033,-0.0178574,0,0.01313183
3524.1642,251.517,403.2853,654.8023,0.02182813,0.03679194,0,0.0327717,-0.034375,-0.0121038,0,0.01392265,0.1710156,0.008305183,0,0.123215,-0.031625,-0.01604182,0,0.01306082
3524.1651,253.9954,402.664,656.6594,0.01048438,0.02520504,0,0.03256965,-0.04004687,-0.01587001,0,0.01387788,0.1715313,0.007168473,0,0.1221314,-0.02285937,-0.007344826,0,0.01298788
3524.166,253.9954,402.664,658.5148,6.25E-16,0.0147163,0,0.03236584,-0.0378125,-0.01566843,0,0.01383311,0.1593281,-0.0035911,0,0.1210451,-0.0199375,-0.004486839,0,0.01291423
3524.1669,257.0934,401.4214,658.5123,-0.007046875,0.008526464,0,0.03216052,-0.03265625,-0.008583048,0,0.01378835,0.1632813,-9.73E-05,0,0.1199612,-0.02285937,-0.007736735,0,0.01284008
3524.1678,258.9522,399.5576,658.5097,-0.007734375,0.006159826,0,0.03195376,-0.02921875,-0.006774126,0,0.01374358,0.1665469,0.004180693,0,0.1188801,-0.01959375,-0.005539669,0,0.01276517
3524.1687,259.5718,398.9363,658.508,-0.008421875,0.008553875,0,0.03174607,-0.02939062,-0.005947659,0,0.01371374,0.1672344,0.005539571,0,0.1178019,-0.01959375,-0.006179988,0,0.01268967
3524.1696,260.1914,397.6937,657.885,-0.009109375,0.0045765,0,0.03153708,-0.02371875,-0.000755159,0,0.01366897,0.1582969,-0.00067869,0,0.1167256,-0.017875,-0.006695677,0,0.01261354
3524.1705,261.4306,397.0724,658.5029,-0.0309375,-0.01316091,0,0.03132688,-0.01942187,0.003037054,0,0.01363912,0.158125,-0.001506831,0,0.1156505,-0.01460937,-0.004445777,0,0.01253675
3524.1714,263.9089,396.4511,660.3601,-0.05259375,-0.03765753,0,0.03111484,-0.0158125,0.007518866,0,0.01360928,0.1780625,0.02557004,0,0.1145744,-0.0144375,-0.007647044,0,0.0124594
3524.1723,266.3873,394.5873,660.9746,-0.08164062,-0.06393642,0,0.03089822,-0.01117187,0.01020162,0,0.01357944,0.1792656,0.0238245,0,0.1134909,-0.01323437,-0.007760549,0,0.01238128
3524.1732,268.2461,392.1021,660.3483,-0.09057812,-0.07345693,0,0.03067057,-0.01478125,0.008351366,0,0.01353467,0.1405938,-0.003526134,0,0.1123994,-0.004125,-0.002964208,0,0.0123024
3524.1741,269.4853,389.617,659.1023,-0.08215625,-0.06445592,0,0.03042856,-0.009625,0.0107419,0,0.01350482,0.1527969,0.005975262,0,0.1113011,-0.0006875,-0.001129758,0,0.01222295
3524.175,269.4853,389.617,658.4777,-0.06909375,-0.05020847,0,0.03017677,-0.0089375,0.01323148,0,0.01347498,0.1495313,0.0142487,0,0.1101948,0.0034375,-0.001604775,0,0.01214316
3524.1759,270.7245,387.7531,658.7858,-0.05534375,-0.03658093,0,0.0299188,-0.0116875,0.007719231,0,0.01344514,0.1383594,0.004433079,0,0.1090815,0.0034375,-0.003819925,0,0.01206321
3524.1768,272.5833,386.5105,659.0939,-0.0495,-0.02998804,0,0.0296582,-0.01804687,0.002480569,0,0.01341529,0.1242656,-0.000803838,0,0.1079623,0.0055,-0.005711283,0,0.01198268
3524.1777,273.8225,385.8893,659.7118,-0.04039062,-0.01973304,0,0.02939713,-0.0144375,0.003818472,0,0.01338545,0.119625,0.001155754,0,0.1068376,0.01048438,-0.003972797,0,0.01190142
3524.1786,276.9205,384.6467,661.5672,-0.03265625,-0.01297133,0,0.02913695,-0.01375,0.004681027,0,0.0133556,0.1161875,0.004540744,0,0.1057067,0.0171875,4.92E-05,0,0.01181958
3524.1795,280.0185,383.4041,663.4226,-0.033,-0.01089919,0,0.02887733,-0.01564062,0.001138412,0,0.01332576,0.09607813,-0.006133112,0,0.104571,0.02165625,0.000369853,0,0.01173728
3524.1804,281.8773,380.2977,662.175,-0.01615625,0.004399116,0,0.02861531,-0.0165,-0.000510979,0,0.01329591,0.08989063,-0.004591462,0,0.1034356,0.0213125,-0.001642633,0,0.01165454
3524.1813,281.8773,377.1912,659.0686,-0.007734375,0.01442394,0,0.02835239,-0.015125,-6.62E-05,0,0.01326607,0.08954688,0.004806815,0,0.102302,0.0281875,0.001100563,0,0.01157237
3524.1822,282.4969,375.9487,658.4456,-0.005671875,0.01666972,0,0.02809343,-0.01082812,0.002437945,0,0.01323622,0.07064063,-0.004426763,0,0.1011677,0.03196875,0.003262188,0,0.01149255
3524.1831,284.3557,375.3274,659.6831,0.002234375,0.02345372,0,0.02784497,-0.006875,0.006289306,0,0.01320638,0.06325,-0.001695403,0,0.1000314,0.03265625,0.000931342,0,0.01141329
3524.184,284.3557,375.3274,659.0568,0.005328125,0.02937611,0,0.02760911,-0.00859375,0.001942436,0,0.01317653,0.07957813,0.02368036,0,0.098893,0.03403125,-0.000148431,0,0.01133393
3524.1849,286.2145,372.8422,658.7427,0.01426563,0.03477428,0,0.02739347,-0.01598437,-0.005059446,0,0.01316161,0.088,0.04568384,0,0.0977513,0.0350625,-0.000546018,0,0.0112546
3524.1858,288.6929,369.7358,658.4287,0.007390625,0.03193797,0,0.02720293,-0.017875,-0.009639182,0,0.01313177,0.07528125,0.03836656,0,0.09660461,0.037125,-0.001776567,0,0.01117562
3524.1867,290.5517,366.6294,657.181,0.004125,0.02489892,0,0.0270355,-0.02492187,-0.01672762,0,0.01310192,0.03557813,0.01676007,0,0.09545721,0.03935938,0.000137403,0,0.01109692
3524.1876,291.1713,364.7655,655.9368,0.0020625,0.02574608,0,0.02688138,-0.0254375,-0.01888757,0,0.013087,0.03832813,0.02207758,0,0.09431228,0.04571875,0.003242757,0,0.0110185
3524.1885,291.7909,362.2803,654.0712,6.25E-16,0.0216393,0,0.02673008,-0.02028125,-0.01500774,0,0.01305716,0.0391875,0.04207572,0,0.09316795,0.048125,0.005505121,0,0.01094085
3524.1894,294.2693,361.6591,655.9283,-0.009625,0.01263446,0,0.0265807,-0.01546875,-0.01028816,0,0.01304223,0.03454688,0.04194542,0,0.09202285,0.05242188,0.007607326,0,0.0108644
3524.1903,296.1281,360.4165,656.5446,-0.00653125,0.01563075,0,0.0264368,-0.006703125,-0.003878478,0,0.01302731,0.01478125,0.03694774,0,0.0908763,0.0495,0.004192887,0,0.01078878
3524.1912,297.3673,359.1739,656.5412,-0.0048125,0.01633891,0,0.02630495,0.003265625,0.006962144,0,0.01301239,0.01048438,0.04255727,0,0.08973226,0.05001563,0.003783017,0,0.01071489
3524.1921,300.4653,356.0675,656.5327,-0.01546875,0.006305003,0,0.02619256,0.0158125,0.01707311,0,0.01301239,-0.002921875,0.03767877,0,0.08859028,0.05929688,0.01251361,0,0.01064319
3524.193,300.4653,356.0675,655.2834,-0.01495312,0.00562481,0,0.02609693,0.01254688,0.01460738,0,0.01301239,-0.03970312,0.01510514,0,0.08745471,0.06084375,0.01383597,0,0.01057225
3524.1939,302.9437,352.3397,654.3515,-0.015125,0.005583593,0,0.02601137,0.01529688,0.01574901,0,0.01301239,-0.1481562,-0.08781722,0,0.08633184,0.05551563,0.00867304,0,0.0105023
3524.1948,302.9437,350.4759,653.4196,-0.02285937,-0.002774238,0,0.02593179,0.02509375,0.02575106,0,0.01301239,-0.3069687,-0.2328398,0,0.08521229,0.05482813,0.007822144,0,0.01043388
3524.1957,304.1829,349.2333,653.4161,-0.02560937,-0.005973672,0,0.02585522,0.0171875,0.01725257,0,0.01301239,-0.2882344,-0.2073927,0,0.08405007,0.05242188,0.006729866,0,0.01036744
3524.1966,304.8025,346.7482,651.5507,-0.02560937,-0.006501778,0,0.02577953,0.003609375,0.003452873,0,0.01301239,-0.1725625,-0.08130776,0,0.08285411,0.04915625,0.003355,0,0.0103036
3524.1975,306.6613,344.263,650.9243,-0.02509375,-0.006033966,0,0.02570652,0.001375,0.001350016,0,0.01302731,-0.1295937,-0.02990877,0,0.08165682,0.045375,0.001834411,0,0.01024253
3524.1984,309.1397,341.7779,650.9175,-0.01959375,-0.002052843,0,0.02564289,-0.0055,-0.005776042,0,0.01302731,-0.09625,0.01152279,0,0.0804614,0.04503125,0.00186167,0,0.01018503
3524.1993,310.3789,338.0501,648.429,-0.0158125,0.003059731,0,0.02559545,-0.01220312,-0.0119621,0,0.01302731,-0.0859375,0.02913558,0,0.07926606,0.04039063,6.52E-06,0,0.01013106
3524.2002,311.6181,334.9437,646.5618,-0.0048125,0.0110452,0,0.02556687,-0.0103125,-0.01004749,0,0.01304223,-0.1235781,-0.000384315,0,0.07807106,0.03935938,-0.000106832,0,0.01008137
3524.2011,312.8573,332.4586,645.3158,0.00309375,0.0216214,0,0.02555382,-0.009109375,-0.008264076,0,0.01305716,-0.1369844,-0.00894371,0,0.07687942,0.03523438,-0.000843077,0,0.01003661
3524.202,312.8573,332.4586,644.6912,0.0185625,0.03330571,0,0.0255496,-0.00515625,-0.003694263,0,0.01307208,-0.1375,-0.001443137,0,0.07569071,0.0309375,-0.004065994,0,0.009995898
3524.2029,314.0964,330.5947,644.9993,0.02457813,0.04216294,0,0.02554987,0.00034375,0.002102443,0,0.013087,-0.1258125,0.0141007,0,0.07450685,0.02990625,-0.000817087,0,0.009959689
3524.2038,315.9552,329.3521,645.3074,0.017875,0.03233687,0,0.02555206,0.00378125,0.006984153,0,0.01310192,-0.130625,0.01488682,0,0.07332947,0.02973438,4.83E-05,0,0.009928351
3524.2047,319.0532,327.4883,646.5415,-0.01735937,-0.001153338,0,0.02555654,0.01151563,0.01464714,0,0.01313177,-0.1350937,0.01525409,0,0.07215901,0.02354688,-0.001188602,0,0.009901771
3524.2056,321.5316,323.1393,644.6709,-0.04795312,-0.03330869,0,0.0255674,0.011,0.01617365,0,0.01314669,-0.1093125,0.04291696,0,0.07099611,0.03042188,0.007182346,0,0.009881226
3524.2065,321.5316,319.4115,640.9432,-0.06135937,-0.04629738,0,0.02558057,0.000171875,0.005361259,0,0.01316161,-0.1335469,0.0243858,0,0.06984787,0.0275,0.009102114,0,0.009866464
3524.2074,322.1512,317.5477,639.6989,-0.05517187,-0.04044677,0,0.02559085,-0.0089375,-0.001809235,0,0.01317653,-0.1625937,-0.005614987,0,0.06872648,0.0185625,0.002720126,0,0.009856252
3524.2083,322.7708,315.6838,638.4547,-0.04434375,-0.02975019,0,0.02560088,-0.00721875,0.000680215,0,0.01319146,-0.1369844,0.02482004,0,0.06762613,0.0144375,0.002769699,0,0.009849061
3524.2092,324.6296,311.9561,636.5857,-0.04795312,-0.03333074,0,0.02561342,-0.01289062,-0.003774502,0,0.0132213,-0.1201406,0.04032317,0,0.06653974,0.01357813,0.005474649,0,0.009844988
3524.2101,327.108,309.4709,636.579,-0.04726562,-0.03266652,0,0.02562881,-0.020625,-0.009738129,0,0.01323622,-0.1290781,0.03321444,0,0.06546323,0.01014063,0.005825704,0,0.009845654
3524.211,329.5864,306.3645,635.9509,-0.02921875,-0.01440619,0,0.02564902,-0.0199375,-0.008595447,0,0.01326607,-0.1271875,0.03543959,0,0.0643941,0.00446875,0.003990034,0,0.009849866
3524.2119,329.5864,306.3645,635.0156,-0.01460937,-3.74E-05,0,0.02567629,-0.02921875,-0.01539166,0,0.01328099,-0.1431719,0.01678097,0,0.06332991,-0.001890625,0.001624523,0,0.009856965
3524.2128,332.0648,302.0155,634.0803,-0.01220312,0.003487126,0,0.02571014,-0.03489062,-0.02107909,0,0.01331083,-0.1624219,0.000299246,0,0.06226541,-0.009453125,-0.002398279,0,0.009866928
3524.2137,333.9236,298.2878,632.2114,-0.01289062,0.001550774,0,0.02574764,-0.03196875,-0.01533455,0,0.01332576,-0.1558906,9.65E-06,0,0.06120172,-0.0171875,-0.005857468,0,0.009879384
3524.2146,334.5432,296.4239,630.9672,-0.01925,-0.002283145,0,0.02578736,-0.02904687,-0.01271927,0,0.01334068,-0.1531406,0.006105845,0,0.06014181,-0.01907812,-0.004457168,0,0.009893417
3524.2155,335.1628,295.1813,630.3441,-0.023375,-0.008579462,0,0.0258281,-0.02921875,-0.009926289,0,0.01337052,-0.1311406,0.02046443,0,0.0590838,-0.02371875,-0.004949466,0,0.009908424
3524.2164,337.0216,293.3175,630.3391,-0.0254375,-0.007561753,0,0.0258692,-0.022,-0.003170367,0,0.01338545,-0.1299375,0.02137954,0,0.05803162,-0.03076562,-0.008840934,0,0.009924007
3524.2173,339.5,290.8323,630.3323,-0.00859375,0.007685251,0,0.02591086,-0.02148437,8.86E-05,0,0.01340037,-0.1395625,0.008127446,0,0.05699402,-0.04142187,-0.01547976,0,0.009939953
3524.2182,341.3588,286.4833,627.8421,-0.00653125,0.01148804,0,0.0259526,-0.01753125,0.003860296,0,0.01341529,-0.1252969,0.01521585,0,0.0559788,-0.04984375,-0.02132384,0,0.009954732
3524.2191,342.598,282.7556,625.3536,-0.01770312,0.00112354,0,0.0259949,-0.01392187,0.009352565,0,0.01344514,-0.08679687,0.05533503,0,0.05498548,-0.05259375,-0.01969625,0,0.009966406
3524.22,343.8372,280.8917,624.7289,-0.01564062,0.002186928,0,0.02603953,-0.01409375,0.009788729,0,0.01346006,-0.07115625,0.05892451,0,0.05400341,-0.05276562,-0.01846469,0,0.009976029
3524.2209,343.8372,280.8917,624.106,-0.01082812,0.01076023,0,0.02608596,-0.01753125,0.007041911,0,0.01347498,-0.1093125,0.0228833,0,0.05302749,-0.05585937,-0.01670867,0,0.009984028
3524.2218,345.0764,278.4066,623.483,-0.00996875,0.008284619,0,0.02613337,-0.01564062,0.01012739,0,0.01350482,-0.1022656,0.01969104,0,0.05206019,-0.05310937,-0.01349066,0,0.0099902
3524.2227,346.3156,276.5427,622.8583,-0.02767187,-0.004115464,0,0.02618175,-0.01426562,0.011611,0,0.01351975,-0.121,-0.003251678,0,0.05109965,-0.05740625,-0.01341058,0,0.009995132
3524.2236,348.1744,275.3001,623.4745,-0.03248437,-0.01252662,0,0.02623144,-0.01959375,0.007030078,0,0.01353467,-0.1572656,-0.04251861,0,0.05014373,-0.05259375,-0.007939975,0,0.009998967
3524.2245,350.6528,272.815,623.4678,-0.04073437,-0.01635915,0,0.02628144,-0.01907812,0.008159406,0,0.01354959,-0.1345781,-0.03252597,0,0.04919184,-0.05053125,-0.003225759,0,0.01000248
3524.2254,353.1312,269.7086,622.8397,-0.0488125,-0.02607673,0,0.02633098,-0.01907812,0.007606996,0,0.01357944,-0.1307969,-0.02534216,0,0.04825244,-0.05534375,-0.006313958,0,0.0100061
3524.2263,354.99,266.6021,621.5921,-0.055,-0.03043966,0,0.02638014,-0.02423437,0.003849652,0,0.01359436,-0.1290781,-0.04063724,0,0.04732556,-0.05757812,-0.00783716,0,0.01000941
3524.2272,356.2292,264.117,620.3461,-0.03626562,-0.01059213,0,0.02642922,-0.02148437,0.005125984,0,0.01360928,-0.1438594,-0.05127626,0,0.04641094,-0.05414062,-0.002185345,0,0.01001246
3524.2281,356.8488,264.117,620.9657,-0.0116875,0.0133356,0,0.02647903,-0.02217187,0.005678081,0,0.0136242,-0.1192812,-0.04184401,0,0.04550802,-0.04640625,0.005496733,0,0.01001552
3524.229,358.7076,264.117,622.8245,-0.00378125,0.02411568,0,0.02652897,-0.01821875,0.008405481,0,0.01363912,-0.09264062,-0.01527058,0,0.04461593,-0.04640625,0.006645146,0,0.01001835
3524.2299,358.7076,264.117,623.1327,0.007046875,0.03320491,0,0.02657772,-0.01684375,0.009871732,0,0.01366897,-0.0776875,-0.01055818,0,0.04375106,-0.04365625,0.009936195,0,0.01002084
3524.2308,360.5664,262.8744,623.4408,0.0034375,0.03272988,0,0.02662365,-0.02028125,0.005883124,0,0.01368389,-0.07803125,-0.01587336,0,0.04292341,-0.03420312,0.01855654,0,0.01002266
3524.2317,361.186,261.6318,622.8178,-0.00584375,0.0217066,0,0.02666692,-0.02165625,0.003766367,0,0.01369881,-0.0611875,-0.005368878,0,0.04212709,-0.03179687,0.02221241,0,0.01002214
3524.2326,362.4252,259.1467,621.5718,-0.0199375,0.01049947,0,0.02670967,-0.02182812,0.002807536,0,0.01371374,-0.05379687,-0.005179645,0,0.04136731,-0.03025,0.0216066,0,0.01001777
3524.2335,364.284,256.6615,620.9455,-0.03007812,-0.001536233,0,0.02675274,-0.02509375,-0.000759664,0,0.01372866,-0.06015625,-0.01691289,0,0.04064001,-0.03471875,0.01805544,0,0.01000976
3524.2344,364.9035,255.419,620.3225,-0.04365625,-0.011989,0,0.02679685,-0.02921875,-0.006927682,0,0.0137585,-0.05242187,-0.01583538,0,0.03993781,-0.03575,0.01485101,0,0.009999189
3524.2353,366.1427,255.419,621.5617,-0.05328125,-0.02416575,0,0.02684125,-0.02921875,-0.006307376,0,0.01377342,-0.03764062,-0.007214913,0,0.03927014,-0.03609375,0.01419762,0,0.009987134
3524.2362,368.0015,253.5551,621.5566,-0.06084375,-0.02831021,0,0.02688459,-0.02870312,-0.00868019,0,0.01378835,-0.02801562,-0.002911713,0,0.03864264,-0.03832812,0.01013595,0,0.009973528
3524.2371,371.0995,251.6912,622.7908,-0.04915625,-0.01927138,0,0.0269269,-0.04365625,-0.02319092,0,0.01380327,-0.01907812,-0.000584281,0,0.03804926,-0.04434375,0.002956831,0,0.009959096
3524.238,373.5779,250.4487,624.0266,-0.03403125,-0.001646199,0,0.02696869,-0.04503125,-0.02671159,0,0.01383311,-0.004296875,0.009179172,0,0.03748984,-0.04021875,0.004716243,0,0.009944588
3524.2389,373.5779,250.4487,624.3339,-0.00378125,0.0273018,0,0.02701064,-0.04279687,-0.02564466,0,0.01384804,0.00790625,0.01560467,0,0.03696545,-0.0323125,0.01171846,0,0.009929892
3524.2398,376.0563,248.5848,624.6411,0.01203125,0.04345814,0,0.02705069,-0.0460625,-0.02933879,0,0.01386296,0.000859375,0.003215558,0,0.0364739,-0.0378125,0.00249594,0,0.009914145
3524.2407,376.6759,248.5848,625.2607,0.0144375,0.04640327,0,0.02708584,-0.0364375,-0.0225842,0,0.01386296,0.0034375,0.001066197,0,0.03601829,-0.04932812,-0.009283239,0,0.009898786
3524.2416,377.9151,248.5848,626.4999,0.01890625,0.04961758,0,0.02711512,-0.02629687,-0.01175595,0,0.01387788,0.01065625,0.003207297,0,0.03559882,-0.0433125,-0.007810175,0,0.009883617
3524.2425,380.3935,247.3422,627.7357,0.00446875,0.03599046,0,0.02713736,-0.01478125,-0.003552188,0,0.01387788,0.0055,-0.006974899,0,0.03521216,-0.04125,-0.006320467,0,0.009868194
3524.2434,382.2523,246.7209,628.9733,-0.009453125,0.02142606,0,0.02715655,-0.012375,-0.000649098,0,0.0138928,0.0185625,0.002918862,0,0.03485968,-0.03489062,-0.003921364,0,0.009852616
3524.2443,384.7307,245.4784,630.2091,-0.01151562,0.01824434,0,0.02717518,-0.01203125,-0.002928908,0,0.01390772,0.03798438,0.01564832,0,0.03453933,-0.0309375,-0.001992871,0,0.009837137
3524.2452,385.9699,243.6145,629.5844,-0.02921875,0.002039968,0,0.02719296,-0.01220312,-0.003298658,0,0.01392265,0.0495,0.02662722,0,0.03424842,-0.02595312,0.000358358,0,0.009821628
3524.2461,387.2091,241.1294,628.3385,-0.0543125,-0.02645756,0,0.02721081,-0.01134375,-0.00435213,0,0.01395249,0.07459375,0.04354761,0,0.03398772,-0.01478125,0.00808938,0,0.009806551
3524.247,388.4483,239.2655,627.7138,-0.0694375,-0.0388885,0,0.02722747,-0.008421875,-0.001812096,0,0.01396741,0.05895313,0.02891367,0,0.0337545,-0.009109375,0.01187895,0,0.009791977
3524.2479,388.4483,239.2655,628.0236,-0.05414062,-0.02728831,0,0.02724154,0.0020625,0.006878047,0,0.01399726,0.05225,0.0145782,0,0.03355446,-0.004125,0.01306066,0,0.00977676
3524.2488,389.0679,239.2655,628.3334,-0.0378125,-0.009430078,0,0.02725552,0.0089375,0.01371775,0,0.01401218,0.0488125,0.01165682,0,0.03338567,-0.0075625,0.007641146,0,0.00976022
3524.2497,392.1659,239.8868,632.0527,-0.01839062,0.008111077,0,0.02726949,0.01323438,0.01617755,0,0.01404202,0.03282813,-0.009780378,0,0.03323493,-0.01701562,-0.005350158,0,0.009743268
3524.2506,395.2639,239.2655,634.5294,-0.0055,0.02019596,0,0.02728398,0.01409375,0.01724852,0,0.01405695,0.0385,-0.005363709,0,0.03309579,-0.02217187,-0.01253129,0,0.009726219
3524.2515,397.1227,237.4016,634.5243,-0.00446875,0.02120267,0,0.0272977,0.02096875,0.02261499,0,0.01408679,0.05328125,0.006606514,0,0.03296641,-0.01873437,-0.01276854,0,0.00970797
3524.2524,400.2207,235.5378,635.7584,-0.01546875,0.008136488,0,0.02731136,0.026125,0.02786804,0,0.01410171,0.04039063,-0.009077365,0,0.0328416,-0.01426562,-0.009649963,0,0.009688369
3524.2533,400.8403,234.9165,635.7568,-0.04039062,-0.01663318,0,0.02732653,0.0275,0.02836803,0,0.01411664,0.04692188,-0.003535895,0,0.03271677,-0.01426562,-0.0139142,0,0.00966802
3524.2542,402.0795,234.9165,636.996,-0.05001562,-0.0277926,0,0.0273463,0.03025,0.03104109,0,0.01413156,0.05310938,-0.000487364,0,0.0325916,-0.02217187,-0.02244929,0,0.009646522
3524.2551,403.3187,234.2952,637.6139,-0.05448437,-0.03318811,0,0.02737525,0.03196875,0.03244161,0,0.01414648,0.0385,-0.01559996,0,0.03246638,-0.01615625,-0.0206632,0,0.00962183
3524.256,405.7971,235.5378,641.3348,-0.06720312,-0.04639935,0,0.02741443,0.02475,0.02517847,0,0.01414648,0.05482813,-0.001260499,0,0.03234034,-0.01082812,-0.01620551,0,0.009594668
3524.2569,405.7971,235.5378,642.2626,-0.064625,-0.04545978,0,0.02745916,0.01478125,0.01523229,0,0.0141614,0.05448438,-0.0027647,0,0.03221404,-0.00378125,-0.01210206,0,0.009566988
3524.2578,408.8951,234.2952,643.1902,-0.056375,-0.03752552,0,0.02750849,0.0089375,0.00951137,0,0.0141614,0.02251563,-0.03501868,0,0.03208839,0.002578125,-0.007838643,0,0.009541496
3524.2587,411.3735,231.8101,643.1835,-0.05035937,-0.03277765,0,0.02756448,0.00446875,0.005334489,0,0.0141614,0.02664063,-0.03305501,0,0.03196288,0.00790625,-0.003718545,0,0.00951798
3524.2596,413.2323,229.3249,642.5572,-0.04657812,-0.02991091,0,0.02762503,-0.001375,-0.000216237,0,0.01417633,0.04520313,-0.01331197,0,0.03183828,0.020625,0.005966265,0,0.009495905
3524.2605,413.2323,228.7036,641.9359,-0.04314062,-0.02706764,0,0.02768592,-0.006015625,-0.004327898,0,0.01419125,0.04915625,-0.01192769,0,0.03171872,0.02835938,0.01338309,0,0.009475989
3524.2614,413.8519,228.0823,641.9342,-0.02423437,-0.009385767,0,0.02774477,-0.01151562,-0.009307404,0,0.01419125,0.04675,-0.01256551,0,0.03160433,0.03265625,0.01489878,0,0.00945824
3524.2623,416.3302,228.7036,645.0339,-0.00721875,0.007122232,0,0.02780814,-0.01770312,-0.01487705,0,0.01420617,0.05809375,-0.003214324,0,0.03149379,0.0350625,0.01680148,0,0.009441957
3524.2632,419.4282,228.0823,647.5106,-0.0020625,0.0114092,0,0.02788093,-0.01890625,-0.01517706,0,0.01420617,0.06290625,0.003025215,0,0.03138977,0.03729688,0.01717107,0,0.009425479
3524.2641,423.1458,226.2185,649.3643,0.00825,0.02100818,0,0.02796498,-0.02217187,-0.01791821,0,0.01420617,0.05929688,-0.001060409,0,0.0312973,0.028875,0.008114249,0,0.009408096
3524.265,425.6242,224.9759,650.6001,0.01495313,0.02702208,0,0.0280555,-0.03128125,-0.02566458,0,0.01422109,0.06496875,0.004961506,0,0.03120969,0.01925,-0.003041297,0,0.009391818
3524.2659,425.6242,224.9759,651.2197,0.008421875,0.02031031,0,0.02814773,-0.03351562,-0.02755644,0,0.01422109,0.07270313,0.01407838,0,0.03112271,0.02079688,-0.001447778,0,0.009377401
3524.2668,426.8634,224.9759,651.8393,0.00034375,0.01068534,0,0.02824316,-0.03454687,-0.02684807,0,0.01422109,0.07270313,0.01303653,0,0.03103709,0.02629688,0.002055915,0,0.009363745
3524.2677,427.483,224.3546,651.8377,-0.01254687,-0.000844846,0,0.02834395,-0.03626562,-0.0283233,0,0.01420617,0.07871875,0.02221375,0,0.03095493,0.02217188,-0.001026336,0,0.00935018
3524.2686,428.1026,224.3546,652.4572,-0.01959375,-0.01083179,0,0.02845267,-0.03660937,-0.02677076,0,0.01420617,0.08490625,0.0263391,0,0.03087162,0.02285938,-0.002503152,0,0.00933687
3524.2695,429.9614,224.3546,654.316,-0.02560937,-0.01412969,0,0.02856951,-0.03214062,-0.02196351,0,0.01419125,0.07115625,0.01674449,0,0.03078636,0.02492188,0.00069046,0,0.00932362
3524.2704,431.8202,221.8695,653.6897,-0.01976562,-0.01157112,0,0.02869001,-0.02732812,-0.01540049,0,0.01417633,0.06960938,0.013275,0,0.03070224,0.02767188,0.002316271,0,0.009310555
3524.2713,434.2986,220.6269,654.9255,-0.0061875,0.00437707,0,0.02881265,-0.02217187,-0.009597733,0,0.01417633,0.06153125,0.008897854,0,0.03061992,0.02165625,-0.003579066,0,0.009297851
3524.2722,436.777,218.763,655.5401,0.004984375,0.01392295,0,0.02893603,-0.01701562,-0.003049129,0,0.0141614,0.07098438,0.01822023,0,0.0305395,0.02285938,-0.001866696,0,0.009285969
3524.2731,436.777,217.5204,654.2975,-0.0055,0.003702847,0,0.02906033,-0.006359375,0.008578055,0,0.0141614,0.08335938,0.0322403,0,0.03045992,0.03042188,0.005022718,0,0.009275225
3524.274,437.3966,216.8992,654.2958,0.0075625,0.01780552,0,0.02918989,0.000171875,0.01621109,0,0.0141614,0.06651563,0.01814363,0,0.03037923,0.02492188,0.00050537,0,0.009264989
3524.2749,437.3966,216.8992,654.9153,0.0350625,0.04347246,0,0.02932555,0.001203125,0.01819843,0,0.0141614,0.06514063,0.01574628,0,0.03029844,0.0213125,-0.002996878,0,0.009255172
3524.2758,438.6358,216.8992,655.535,0.03110938,0.0421382,0,0.02946152,0.002234375,0.02043186,0,0.01414648,0.05448438,0.01039512,0,0.03021812,0.02285938,-0.001704273,0,0.009245789
3524.2767,441.1142,216.8992,658.0134,0.03471875,0.04368453,0,0.02959605,-0.001203125,0.01745116,0,0.01414648,0.0020625,-0.04455069,0,0.03013807,0.02217188,-0.000316846,0,0.009236825
3524.2776,443.5926,216.8992,660.4918,0.04176563,0.05268237,0,0.02972752,-0.00653125,0.01372916,0,0.01413156,-0.02234375,-0.06302652,0,0.03005309,0.02475,0.000410278,0,0.009227983
3524.2785,446.071,215.0353,661.1063,0.045375,0.0560096,0,0.0298537,-0.005328125,0.01474893,0,0.01413156,0.01014063,-0.03227575,0,0.0299573,0.0199375,-0.000998818,0,0.009219272
3524.2794,447.9298,212.5502,660.4799,0.03884375,0.04941129,0,0.02997272,-0.00515625,0.01672531,0,0.01411664,-0.0055,-0.04339209,0,0.02985872,0.02217188,-0.000836763,0,0.009210627
3524.2803,447.9298,212.5502,660.4799,0.001546875,0.01396051,0,0.03008539,-0.0055,0.01595947,0,0.01411664,-0.01753125,-0.05524774,0,0.02975482,0.02182813,0.001877858,0,0.009201972
3524.2812,448.5494,213.1714,661.7208,-0.04382812,-0.0328468,0,0.03019735,-0.0171875,0.005715163,0,0.01411664,0.00103125,-0.03353873,0,0.02964243,0.03575,0.01491818,0,0.009193299
3524.2821,449.7886,212.5502,662.3387,-0.07940625,-0.06598776,0,0.03030611,-0.02646875,-0.00375025,0,0.01411664,0.0171875,-0.01669697,0,0.02952865,0.04279688,0.02381695,0,0.009182709
3524.283,451.6474,211.3076,662.955,-0.09229687,-0.07976343,0,0.03040336,-0.0268125,-0.003315191,0,0.01411664,0.03110938,0.001142688,0,0.02941417,0.03265625,0.01391102,0,0.009167183
3524.2839,451.6474,211.3076,662.6418,-0.072875,-0.0592333,0,0.03048404,-0.0295625,-0.006002639,0,0.01411664,0.04623438,0.01530181,0,0.02930587,0.02440625,0.007009601,0,0.009150086
3524.2848,453.5062,208.8224,662.3286,-0.02784375,-0.01313836,0,0.03055616,-0.03334375,-0.00943698,0,0.01411664,0.05207813,0.02687533,0,0.02920491,0.0171875,4.81E-05,0,0.009132971
3524.2857,455.365,206.3373,661.7023,0.0144375,0.02826282,0,0.03062879,-0.03042187,-0.006608192,0,0.01411664,0.06685938,0.03982574,0,0.02910689,0.00378125,-0.01152424,0,0.009116149
3524.2866,456.6042,205.0947,661.6989,0.03110938,0.0476005,0,0.03070081,-0.03489062,-0.01077525,0,0.01411664,0.06857813,0.04629314,0,0.02901355,0.00240625,-0.01320969,0,0.009098508
3524.2875,457.8434,205.0947,662.938,0.02423438,0.03900692,0,0.03076923,-0.04348437,-0.01987334,0,0.01413156,0.06479688,0.04395589,0,0.02892012,-0.00034375,-0.01358017,0,0.009079924
3524.2884,458.463,205.0947,663.5577,0.0061875,0.02340175,0,0.03083934,-0.03678125,-0.01287566,0,0.01413156,0.05740625,0.03605484,0,0.02882327,-0.00240625,-0.01620665,0,0.009060265
3524.2893,460.3218,205.0947,665.4165,0.002921875,0.01962741,0,0.03091477,-0.02251562,0.00065652,0,0.01413156,0.045375,0.03134273,0,0.02872359,-0.004984375,-0.01632053,0,0.009038536
3524.2902,462.8002,203.8521,666.6523,0.00240625,0.01943203,0,0.03099223,-0.02475,-0.001538475,0,0.01414648,-0.004125,-0.02373957,0,0.02862329,-0.00171875,-0.0136671,0,0.009014537
3524.2911,465.2786,201.9883,667.2668,0.00240625,0.0213454,0,0.03106955,-0.02509375,-0.002561911,0,0.01414648,-0.06445312,-0.07432242,0,0.02852352,-0.00034375,-0.009637922,0,0.008989072
3524.292,465.8982,200.1244,666.0226,-0.00721875,0.009594556,0,0.03114596,-0.01409375,0.008082195,0,0.01414648,-0.003953125,-0.01844598,0,0.02840989,0.002921875,-0.007468184,0,0.008962795
3524.2929,465.8982,200.1244,665.7111,-0.03935937,-0.01898796,0,0.0312223,-0.01220312,0.009391285,0,0.0141614,0.04675,0.03737169,0,0.02829746,0.00103125,-0.006065154,0,0.00893603
3524.2938,466.5177,198.8818,665.3996,-0.05104687,-0.03358954,0,0.03129759,-0.01770312,0.003254153,0,0.0141614,0.04726563,0.04032576,0,0.02818263,0.001375,-0.007460401,0,0.008909988
3524.2947,466.5177,198.2605,664.7783,-0.0529375,-0.03255471,0,0.0313699,-0.01753125,0.002814851,0,0.01417633,0.02629688,0.01635817,0,0.02806497,0.00275,-0.002548303,0,0.008885017
3524.2956,468.3765,197.018,665.3945,-0.04348437,-0.02445196,0,0.03143939,-0.01770312,0.001882865,0,0.01419125,-0.02509375,-0.02566707,0,0.02795784,0.0116875,0.005007045,0,0.008860405
3524.2965,470.8549,195.1541,666.009,-0.04176562,-0.02241198,0,0.03150744,-0.02182812,-0.002944046,0,0.01420617,-0.0020625,-0.01022763,0,0.02792605,0.00446875,0.000172072,0,0.008835835
3524.2974,472.0941,193.2903,665.3844,-0.0611875,-0.04047015,0,0.03157552,-0.0226875,-0.004619575,0,0.01422109,0.02182813,0.02389778,0,0.02795583,0.004984375,0.000936179,0,0.008811586
3524.2983,473.3333,191.4264,664.7598,-0.07115625,-0.0529092,0,0.03164054,-0.01564062,0.001646092,0,0.01423601,0.02973438,0.02657202,0,0.02799354,0.009625,0.006082114,0,0.008787335
3524.2992,473.3333,190.1838,663.5172,-0.07046875,-0.04891139,0,0.03169861,-0.00584375,0.01070663,0,0.01426586,0.03575,0.03753676,0,0.02803065,0.0075625,0.005757529,0,0.008762697
3524.3001,473.9529,190.1838,664.1368,-0.06015625,-0.04237755,0,0.03175074,0.000515625,0.01604138,0,0.01428078,0.0213125,0.02442766,0,0.02806415,0.01254688,0.0103865,0,0.00873773
3524.301,475.8117,189.5625,665.3743,-0.04760937,-0.02640175,0,0.03179878,0.0034375,0.01859938,0,0.01431063,-0.01478125,-0.01373648,0,0.02809721,0.01151563,0.01098678,0,0.008711733
3524.3019,475.8117,189.5625,666.3029,-0.02767187,-0.009770391,0,0.03184577,0.005671875,0.01934162,0,0.01432555,-0.0515625,-0.04328992,0,0.02812976,0.0089375,0.008830841,0,0.008684571
3524.3028,478.2901,188.9412,667.2314,-0.03196875,-0.01190957,0,0.03189354,0.00275,0.01658853,0,0.01434047,-0.07167187,-0.06999989,0,0.02815768,0.006015625,0.006327224,0,0.008656831
3524.3037,481.3881,187.0774,668.4655,-0.0323125,-0.01427238,0,0.03194256,-0.002234375,0.009769675,0,0.01437031,-0.07992187,-0.06859789,0,0.02817182,-0.00103125,0.000702216,0,0.008628719
3524.3046,482.6273,184.5922,667.2195,-0.02182812,-0.003040649,0,0.0319936,-0.008078125,0.004296938,0,0.01438524,-0.04726562,-0.04345909,0,0.02817292,0.001890625,0.003503409,0,0.008601296
3524.3055,481.3881,183.3497,664.7378,-0.0116875,0.00591944,0,0.03204631,-0.009796875,0.000966388,0,0.01440016,-0.03196875,-0.0194104,0,0.028169,0.00515625,0.007829343,0,0.008576712
3524.3064,480.7685,182.7284,663.4969,-0.01357812,0.004272909,0,0.03209894,-0.01684375,-0.006060689,0,0.01441508,0.001890625,0.008606036,0,0.0281646,0.00171875,0.005243693,0,0.008553724
3524.3073,481.3881,181.4858,662.8739,-0.01753125,-0.001060374,0,0.03215281,-0.02114062,-0.0112701,0,0.01443,-0.002234375,0.01083995,0,0.02816377,-0.00275,0.000428988,0,0.008531167
3524.3082,484.4861,180.8645,665.3506,-0.01615625,0.000982897,0,0.03220926,-0.02457812,-0.01520386,0,0.01444493,-0.009453125,-5.84E-05,0,0.02816676,-0.00309375,0.002124447,0,0.008508963
3524.3091,485.7253,179.6219,665.3472,-0.007390625,0.00776325,0,0.03226763,-0.03248437,-0.02343287,0,0.01447477,-0.002234375,0.01142942,0,0.02817152,0.004125,0.008306766,0,0.008487199
3524.31,486.3449,175.8942,662.2391,-0.00103125,0.01499359,0,0.03232697,-0.03454687,-0.02612155,0,0.01448969,-0.00446875,0.007021757,0,0.02817736,0.0006875,0.006691057,0,0.008466184
3524.3109,486.3449,175.8942,661.3064,0.01254688,0.02700372,0,0.03238708,-0.0309375,-0.02267916,0,0.01448969,-0.0254375,-0.01116871,0,0.0281859,-0.0020625,0.003866257,0,0.008445597
3524.3118,486.9645,173.4091,660.3735,0.02560938,0.03964656,0,0.0324466,-0.02973437,-0.02188909,0,0.01450461,-0.02767187,-0.01426363,0,0.02819566,-0.00515625,0.000984985,0,0.008425222
3524.3127,486.9645,172.7878,659.7523,0.02973438,0.04425257,0,0.03250259,-0.02578125,-0.01800271,0,0.01451954,-0.00515625,0.009251264,0,0.02820682,-0.0048125,0.002941086,0,0.008404999
3524.3136,487.5841,172.7878,660.3719,0.02835938,0.04000638,0,0.03255374,-0.0116875,-0.004341187,0,0.01453446,0.02664063,0.04179265,0,0.02821846,0.0055,0.01185635,0,0.008384868
3524.3145,489.4429,172.7878,662.2307,0.02028125,0.03470339,0,0.03260095,-0.005328125,0.002485338,0,0.01454938,0.009796875,0.02451079,0,0.0282254,-0.006359375,0.002665618,0,0.008363511
3524.3154,492.5409,170.9239,663.4648,0.01478125,0.02498466,0,0.03264523,-0.01185937,-0.004949358,0,0.0145643,-0.00171875,0.013885,0,0.02823089,-0.01357812,-0.006500193,0,0.00834227
3524.3163,494.3997,168.4388,662.8384,0.004125,0.01715453,0,0.0326881,-0.0089375,-0.000792089,0,0.01457923,0.02045313,0.03709763,0,0.02823697,-0.008078125,0.001585966,0,0.008320763
3524.3172,494.3997,165.9536,660.3533,0.007046875,0.01750221,0,0.03273049,0.00378125,0.01065119,0,0.01460907,0.00034375,0.01407845,0,0.02824154,-0.01151562,-0.003337538,0,0.008299314
3524.3181,493.7801,165.9536,659.7337,0.0020625,0.01258516,0,0.03277218,0.00171875,0.01014525,0,0.01462399,-0.02560937,-0.00524429,0,0.02824676,-0.02028125,-0.01037586,0,0.008278078
3524.319,493.7801,165.3323,659.1124,0.004984375,0.01646912,0,0.03281352,0.00446875,0.01186656,0,0.01463891,0.005328125,0.01602417,0,0.02825619,-0.01564062,-0.006195795,0,0.008256952
3524.3199,493.7801,165.3323,659.4205,0.01357813,0.02218761,0,0.03285441,0.004640625,0.01329503,0,0.01465384,-0.002921875,0.02061141,0,0.02826675,-0.01959375,-0.009714291,0,0.008237777
3524.3208,495.6389,164.0898,659.7286,0.0034375,0.01496752,0,0.03289414,0.000859375,0.009115031,0,0.01466876,-0.01220312,-0.0027866,0,0.02828043,-0.02217187,-0.01138547,0,0.008219589
3524.3217,496.8781,162.8472,659.7253,0.004296875,0.01297589,0,0.0329333,-0.00103125,0.008096293,0,0.01468368,-0.055,-0.03164588,0,0.02829902,-0.01632812,-0.006720228,0,0.008201871
3524.3226,498.7369,160.9833,659.7202,-0.0048125,0.005295974,0,0.03297218,-0.002234375,0.006879714,0,0.0146986,-0.04365625,-0.03202228,0,0.02831556,-0.01890625,-0.006809483,0,0.008185707
3524.3235,500.5957,157.8769,658.4725,-0.01478125,-0.004545779,0,0.03301123,0.001375,0.01128322,0,0.01471353,-0.0323125,-0.01242922,0,0.02833459,-0.01426562,-0.004878704,0,0.008171009
3524.3244,502.4545,156.6343,659.0887,-0.01357812,-0.004938214,0,0.03305034,0.00446875,0.01448831,0,0.01472845,-0.02182812,-0.006057235,0,0.02835852,-0.0165,-0.003487912,0,0.008157504
3524.3253,502.4545,155.3917,657.8462,-0.0130625,-0.001521053,0,0.03308978,-0.003265625,0.007438809,0,0.01474337,-0.03317187,-0.01731939,0,0.02838526,-0.0165,-0.006872685,0,0.008144283
3524.3262,502.4545,156.013,658.4675,-0.006703125,0.00200216,0,0.03313013,-0.00446875,0.006725163,0,0.01477321,-0.02921875,-0.01039223,0,0.02841368,-0.015125,-0.001915231,0,0.008130724
3524.3271,503.0741,155.3917,658.4658,-0.020625,-0.00882186,0,0.03317169,-0.003953125,0.007359231,0,0.01478814,0.0130625,0.02677342,0,0.02844294,-0.00515625,0.005293211,0,0.008117304
3524.328,505.5525,154.1492,659.7017,-0.01925,-0.009044357,0,0.03321464,-0.0116875,0.000836736,0,0.01480306,0.001203125,0.02070162,0,0.02848085,-0.01082812,0.00199523,0,0.008104147
3524.3289,505.5525,154.1492,660.0098,-0.01203125,-0.000100455,0,0.03325803,-0.01220312,-0.000232854,0,0.0148329,-0.02354687,-0.01008495,0,0.02855504,-0.011,0.000423996,0,0.008090992
3524.3298,507.4113,152.9066,660.3179,-0.02423437,-0.01241885,0,0.03330195,-0.01082812,0.00276179,0,0.01484783,-0.02251562,-0.003813734,0,0.02865852,-0.01082812,0.001595562,0,0.008078022
3524.3307,508.0309,151.664,659.6949,-0.0323125,-0.0192627,0,0.03334644,-0.01426562,-0.00128544,0,0.01487767,-0.015125,-0.00130101,0,0.02876592,-0.01684375,-0.004897918,0,0.008065478
3524.3316,508.6505,149.1789,657.8293,-0.03317187,-0.02022658,0,0.03339144,-0.02096875,-0.006815119,0,0.01489259,-0.01495312,0.002768909,0,0.02887308,-0.02217187,-0.009614376,0,0.008053497
3524.3325,508.6505,147.315,655.9654,-0.0378125,-0.02284055,0,0.03343685,-0.01632812,-0.002119795,0,0.01492244,-0.00515625,0.008881334,0,0.0289803,-0.01460937,-0.002879675,0,0.008043316
3524.3334,509.2701,147.315,656.5851,-0.03540625,-0.02111068,0,0.03348156,-0.01529687,-0.000796263,0,0.01495228,-0.03128125,-0.01448665,0,0.02908717,-0.01014062,0.003078177,0,0.00803658
3524.3343,511.1289,146.6937,657.8226,-0.04348437,-0.02672466,0,0.03352532,-0.026125,-0.01097413,0,0.0149672,-0.0350625,-0.02078381,0,0.02919363,-0.01426562,-0.003163955,0,0.00803265
3524.3352,512.9877,143.5873,656.575,-0.03935937,-0.02285204,0,0.03356737,-0.03059375,-0.01555065,0,0.01499705,-0.02320312,-0.007584698,0,0.02930196,-0.01959375,-0.005767605,0,0.008030603
3524.3361,514.8465,141.7234,656.5698,-0.03626562,-0.01804772,0,0.0336083,-0.031625,-0.01616386,0,0.01502689,-0.0199375,-0.005178215,0,0.02941451,-0.01151562,-0.000792512,0,0.008029599
3524.337,515.4661,139.8596,655.3256,-0.04296875,-0.02383689,0,0.03364918,-0.03471875,-0.0188719,0,0.01504182,-0.006875,0.00735443,0,0.02952825,-0.01564062,-0.001891335,0,0.008030059
3524.3379,515.4661,139.8596,655.015,-0.03523437,-0.01522245,0,0.03368974,-0.033,-0.01772031,0,0.01505674,6.25E-16,0.01517994,0,0.02964299,-0.01220312,-0.001180074,0,0.00803157
3524.3388,515.4661,139.2383,654.7043,-0.028875,-0.007489651,0,0.03373174,-0.02904687,-0.0124889,0,0.01508658,0.0006875,0.01380795,0,0.02975847,-0.01117187,0.001696854,0,0.008033395
3524.3397,516.0857,139.2383,655.3239,-0.03764062,-0.01513756,0,0.03377447,-0.01632812,-0.001325701,0,0.0151015,0.01289063,0.02793878,0,0.02987377,-0.009109375,0.002712187,0,0.008035308
3524.3406,517.9444,139.2383,657.1827,-0.04451562,-0.02130025,0,0.03381801,-0.009453125,0.007319935,0,0.01513135,0.01890625,0.03165406,0,0.02998867,-0.00103125,0.0106313,0,0.008037896
3524.3415,519.1836,137.9957,657.1793,-0.04296875,-0.01773623,0,0.03386322,-0.0089375,0.005978742,0,0.01514627,0.009109375,0.02320454,0,0.03010599,0.002234375,0.01472054,0,0.008039398
3524.3424,520.4228,136.1318,656.5547,-0.03764062,-0.01257095,0,0.0339103,-0.0048125,0.01153168,0,0.01517612,0.01495313,0.0281125,0,0.03022309,-0.00275,0.008023555,0,0.008039411
3524.3433,521.0424,134.268,655.3104,-0.04726562,-0.01953247,0,0.03395986,0.004984375,0.01999793,0,0.01520596,0.02148438,0.0340307,0,0.03033775,-0.00721875,0.00527163,0,0.008039578
3524.3442,520.4228,131.1615,651.5844,-0.048125,-0.02115341,0,0.03401,-0.00171875,0.01373119,0,0.0152358,0.00928125,0.02318729,0,0.03044902,-0.0055,0.004957072,0,0.008039964
3524.3451,520.4228,130.5403,650.9631,-0.03970312,-0.009601011,0,0.03405965,-0.0055,0.009510692,0,0.01525073,-0.02285937,-0.01180389,0,0.03055851,-0.01082812,0.00103789,0,0.00804036
3524.346,521.662,130.5403,652.2023,-0.031625,-0.00299667,0,0.03410957,-0.00240625,0.01205499,0,0.01528057,-0.04589062,-0.03165499,0,0.03066959,-0.009625,0.00080123,0,0.008040777
3524.3469,521.662,130.5403,651.5793,-0.03179687,0.000563026,0,0.03416,-0.007734375,0.006855171,0,0.01529549,-0.028875,-0.01856934,0,0.03078155,-0.0116875,-0.000600161,0,0.008041211
3524.3478,522.9012,128.0551,650.9564,-0.03334375,-0.003146614,0,0.03421147,-0.0116875,0.001983793,0,0.01532534,-0.04984375,-0.0360613,0,0.03089471,-0.01340625,-0.003213989,0,0.008041976
3524.3487,525.3796,125.57,650.9496,-0.04125,-0.007306958,0,0.03426461,-0.01323437,0.000441089,0,0.01535518,-0.07717187,-0.06690451,0,0.03100798,-0.009796875,0.000763426,0,0.008043416
3524.3496,527.2384,123.7061,650.9445,-0.03592187,-0.003720316,0,0.03431843,-0.01271875,0.000318315,0,0.0153701,-0.0556875,-0.04270154,0,0.03111182,-0.0055,0.004042247,0,0.008045805
3524.3505,527.858,122.4635,650.3215,-0.03746875,-0.003016214,0,0.03437229,-0.004125,0.00842701,0,0.01539995,-0.00584375,0.004396353,0,0.03121118,-0.004125,0.006155944,0,0.008048428
3524.3514,527.858,122.4635,650.3215,-0.02371875,0.01070733,0,0.03442642,0.00240625,0.01470128,0,0.01541487,0.0075625,0.0201667,0,0.03131103,-0.003265625,0.005388057,0,0.008050837
3524.3523,529.0972,121.8422,650.9395,-0.007390625,0.0271149,0,0.03448147,-0.00721875,0.004337449,0,0.01544472,0.002234375,0.0119436,0,0.03141013,-0.01065625,-0.000703713,0,0.008053746
3524.3532,530.956,119.9784,650.9344,-0.00171875,0.03407807,0,0.03453596,-0.02285937,-0.01154339,0,0.01547456,-0.00309375,0.009588746,0,0.03150915,-0.0061875,0.001649992,0,0.008057453
3524.3541,532.1952,118.1145,650.3097,0.0240625,0.05913738,0,0.03458857,-0.02560937,-0.01491862,0,0.01550441,-0.00275,0.006317222,0,0.03160916,6.25E-16,0.009357179,0,0.008061607
3524.355,533.4344,117.4932,650.9276,0.05173438,0.08750683,0,0.03463375,-0.02595312,-0.01561348,0,0.01553425,-0.02165625,-0.009122272,0,0.03170964,0.004125,0.01136526,0,0.008065857
3524.3559,533.4344,117.4932,650.6153,0.0584375,0.09438652,0,0.03466223,-0.0323125,-0.02254902,0,0.01554917,-0.02217187,-0.01306798,0,0.03180961,0.00171875,0.01017438,0,0.008071357
3524.3568,534.6736,115.6294,650.303,0.05173438,0.087001,0,0.03467148,-0.0336875,-0.02407125,0,0.01557902,-0.0213125,-0.009754108,0,0.03190951,0.000859375,0.007698028,0,0.008078092
3524.3577,534.6736,113.7655,648.4392,0.04778125,0.08357496,0,0.03466587,-0.028875,-0.02011974,0,0.01560886,-0.03901562,-0.0290137,0,0.03200909,-0.00171875,0.005598885,0,0.008085706
3524.3586,535.2932,113.1442,648.4374,0.0488125,0.08428477,0,0.03464663,-0.02767187,-0.01858208,0,0.01563871,-0.06428125,-0.05427992,0,0.03210709,-0.008078125,-0.001523694,0,0.008094005
3524.3595,536.5324,112.5229,649.0554,0.03695313,0.07097095,0,0.03461296,-0.02646875,-0.01849935,0,0.01566855,-0.05860937,-0.04745764,0,0.03220773,-0.01804687,-0.01198881,0,0.008102745
3524.3604,539.6304,110.6591,650.2895,0.008078125,0.04410304,0,0.03456957,-0.01890625,-0.01038027,0,0.01568347,-0.03695312,-0.02837658,0,0.0323162,-0.01942187,-0.01320667,0,0.008110379
3524.3613,542.1088,106.9313,649.0402,-0.03832812,-0.006508377,0,0.03452334,-0.006015625,0.001650251,0,0.01571332,-0.04434375,-0.03240233,0,0.03242547,-0.0199375,-0.01499035,0,0.008116743
3524.3622,542.7284,105.0675,647.7959,-0.0928125,-0.0574996,0,0.03447827,-0.006875,0.000985222,0,0.01574316,-0.03695312,-0.02922226,0,0.03253328,-0.02595312,-0.02038786,0,0.008121775
3524.3631,543.9676,105.0675,649.0351,-0.1069062,-0.07614707,0,0.03442563,-0.007390625,0.00038619,0,0.01575808,0.000515625,0.01267261,0,0.03264064,-0.01907812,-0.01483744,0,0.008123843
3524.364,545.8264,105.0675,650.8939,-0.1148125,-0.08219727,0,0.03435995,-0.000859375,0.006508996,0,0.01578793,0.05053125,0.05793379,0,0.03274751,-0.01151562,-0.007042797,0,0.008125211
3524.3649,545.8264,105.0675,650.8922,-0.09264062,-0.06198057,0,0.03428095,-0.00378125,0.004226688,0,0.01581777,0.042625,0.05462898,0,0.03284836,-0.01289062,-0.008989987,0,0.008127799
3524.3658,547.0656,103.8249,650.8905,-0.06823437,-0.03908551,0,0.0341957,-0.000515625,0.006866267,0,0.01583269,0.01839063,0.02565558,0,0.03294217,-0.01753125,-0.01433387,0,0.008130197
3524.3667,549.544,101.961,651.5051,-0.08146875,-0.05161821,0,0.03410815,0.00928125,0.01743762,0,0.01586254,0.0281875,0.03997535,0,0.03303427,-0.015125,-0.0115815,0,0.008130977
3524.3676,550.7832,100.0972,650.8804,-0.09023437,-0.06364792,0,0.03401472,0.009796875,0.01781538,0,0.01589238,0.0495,0.05650171,0,0.03312252,-0.006015625,-0.003854444,0,0.008130487
3524.3685,551.4028,97.61204,649.0148,-0.1038125,-0.07644472,0,0.03391166,0.007734375,0.01600771,0,0.01592223,0.0048125,0.01659337,0,0.03320306,-0.005328125,-0.002433294,0,0.008129879
3524.3694,551.4028,95.74818,647.1509,-0.1045,-0.07944839,0,0.03379486,0.009109375,0.01823202,0,0.01595207,-0.001375,0.005020798,0,0.03328337,-0.002234375,-0.000787842,0,0.008129228
3524.3703,552.0224,95.12689,647.1493,-0.08164062,-0.05752478,0,0.03366313,0.01546875,0.02404896,0,0.01598192,0.02784375,0.03995481,0,0.03336449,0.00103125,0.003216495,0,0.008128612
3524.3712,552.642,94.5056,647.1476,-0.06960937,-0.04634109,0,0.03352341,0.02457813,0.03496452,0,0.01601176,0.03832813,0.04378122,0,0.03344202,0.006703125,0.007373731,0,0.008127962
3524.3721,554.5008,92.64174,647.1425,-0.04967187,-0.02814099,0,0.03337833,0.02629688,0.03568675,0,0.01604161,0.0295625,0.04219308,0,0.03351517,0.012375,0.01419735,0,0.008126907
3524.373,557.5988,90.77788,648.3767,-0.01684375,0.00357595,0,0.03323154,0.01821875,0.02967173,0,0.01605653,0.0240625,0.02846351,0,0.03358408,0.015125,0.01472237,0,0.008124106
3524.3739,557.5988,90.77788,648.6831,-0.00653125,0.0132873,0,0.03308758,0.01460938,0.02555038,0,0.01607145,-0.04159375,-0.02868977,0,0.03365142,0.008765625,0.01053632,0,0.008119482
3524.3748,560.6968,88.29273,648.9895,-0.004640625,0.01253188,0,0.03294919,-0.00034375,0.01181135,0,0.01607145,-0.0309375,-0.02708595,0,0.03371809,0.011,0.009597166,0,0.008113988
3524.3757,560.6968,86.42887,647.1257,-0.00034375,0.0176372,0,0.03281553,-0.01271875,0.000420058,0,0.01608637,0.01925,0.03140208,0,0.03378334,0.009453125,0.01091685,0,0.008107948
3524.3766,561.3164,85.18629,646.5026,0.00584375,0.0205644,0,0.03268469,-0.0144375,-0.001696227,0,0.01610129,0.01478125,0.01946231,0,0.03384643,0.01185938,0.01014356,0,0.00810105
3524.3775,561.936,85.80758,647.7435,0.01014063,0.0254311,0,0.03255473,-0.02767187,-0.01223596,0,0.01610129,-0.02921875,-0.01962933,0,0.03390868,0.0034375,0.003947207,0,0.008093148
3524.3784,563.1752,85.18629,648.3615,0.02028125,0.03364628,0,0.03242501,-0.04039062,-0.02658247,0,0.01611622,-0.0103125,-0.003054903,0,0.03397225,0.0006875,-0.000566232,0,0.008085087
3524.3793,564.4144,84.56501,648.9794,0.01770313,0.0298819,0,0.0322954,-0.04760937,-0.03047486,0,0.01613114,0.009109375,0.01469365,0,0.03404043,-0.00103125,-0.001811633,0,0.008078043
3524.3802,566.2732,82.07986,648.353,0.00446875,0.01680473,0,0.03216732,-0.042625,-0.02684028,0,0.01613114,-0.0144375,-0.004118451,0,0.03410919,-0.00034375,-0.000969046,0,0.008073114
3524.3811,567.5123,78.35214,645.8644,-0.00275,0.006948895,0,0.03204113,-0.04210937,-0.02411224,0,0.01613114,-0.007046875,-0.004818286,0,0.03418024,0.00378125,0.002076278,0,0.008069566
3524.382,569.3711,75.86699,645.2382,-0.006875,0.00389892,0,0.03191518,-0.04314062,-0.02471861,0,0.01613114,0.02767188,0.0389666,0,0.03425608,0.002234375,0.001820328,0,0.00806769
3524.3829,569.3711,75.86699,644.6168,-0.0034375,0.005051421,0,0.03179171,-0.0433125,-0.02483039,0,0.01613114,0.0165,0.01841484,0,0.03433056,0.002234375,0.000256678,0,0.008067323
3524.3838,569.3711,74.62441,643.9955,-0.01014062,-0.001512581,0,0.03167731,-0.04640625,-0.02551016,0,0.01613114,-0.078375,-0.06969884,0,0.03440537,-0.004125,-0.004677986,0,0.008069776
3524.3847,568.7515,74.00313,642.7546,-0.01632812,-0.008085988,0,0.03157879,-0.050875,-0.03158159,0,0.01611622,-0.08301562,-0.07836064,0,0.03446973,-0.008078125,-0.01002838,0,0.008072976
3524.3856,569.9907,73.38184,643.3726,-0.01014062,-0.003486014,0,0.03149106,-0.05053125,-0.02799827,0,0.01611622,-0.06135937,-0.05726405,0,0.0345203,-0.008078125,-0.008631268,0,0.008075447
3524.3865,573.7083,72.13927,645.8476,-0.00171875,0.00638044,0,0.03140614,-0.03351562,-0.01280863,0,0.01608637,-0.07648437,-0.06881987,0,0.03456511,-0.00721875,-0.009235107,0,0.008077215
3524.3874,576.1867,69.65412,645.8408,0.02389063,0.02956671,0,0.03132297,-0.03523437,-0.0119093,0,0.01607145,-0.05534375,-0.0544949,0,0.034609,-0.01151562,-0.01178492,0,0.008078826
3524.3883,577.4259,67.79026,645.2162,0.05448438,0.06197448,0,0.03124077,-0.03385937,-0.011541,0,0.01605653,-0.04451562,-0.0364071,0,0.03465442,-0.009453125,-0.01153509,0,0.008080382
3524.3892,578.6651,65.92639,644.5915,0.0625625,0.0684296,0,0.0311507,-0.02303125,0.000703281,0,0.01604161,-0.01804687,-0.01749452,0,0.03470008,-0.007390625,-0.007428336,0,0.008082866
3524.3901,578.6651,64.68382,643.3489,0.03832813,0.04500674,0,0.03104914,-0.022,0.00156317,0,0.01602668,-0.007390625,-0.001441031,0,0.03474732,0.00103125,-0.000760178,0,0.008087681
3524.391,578.0455,64.06253,642.108,0.0185625,0.02516893,0,0.03094262,-0.02217187,0.001926863,0,0.01601176,-0.001546875,0.000311584,0,0.03479565,6.25E-16,-9.56E-05,0,0.008094617
3524.3919,578.0455,64.06253,642.4171,0.00378125,0.01025803,0,0.03083469,-0.01392187,0.01026161,0,0.01599684,0.00378125,0.007079108,0,0.03484528,6.25E-16,-0.001200964,0,0.008102655
3524.3928,579.2847,63.44125,642.726,-0.01082812,-0.003672858,0,0.03072671,-0.01082812,0.01355117,0,0.01598192,-0.009109375,-0.006422188,0,0.03490238,0.00240625,0.002283972,0,0.00811113
3524.3937,581.1435,60.9561,642.0996,-0.008078125,-0.000693802,0,0.03061849,-0.005671875,0.01856615,0,0.01596699,0.00034375,0.002000014,0,0.03496204,0.01065625,0.00982906,0,0.008119836
3524.3946,583.0023,57.22838,640.2307,-0.002921875,0.004448836,0,0.03051052,-0.001546875,0.02291002,0,0.01595207,0.034375,0.03680062,0,0.03502339,0.01289063,0.01326259,0,0.00812777
3524.3955,584.2415,54.74323,638.9847,-0.008765625,0.000332909,0,0.03040388,6.25E-16,0.02380148,0,0.01592223,0.02251563,0.02354617,0,0.0350848,0.006703125,0.005733574,0,0.008135012
3524.3964,583.6219,53.50065,637.1226,-0.02045312,-0.01276517,0,0.03029886,0.00240625,0.02668625,0,0.01590731,0.009109375,0.01044001,0,0.0351458,0.00240625,0.003675082,0,0.008147567
3524.3973,583.6219,52.87937,636.5013,-0.04434375,-0.03334514,0,0.03019475,0.004125,0.02707977,0,0.01587746,0.01753125,0.01876482,0,0.03520723,0.0075625,0.006387058,0,0.008169232
3524.3982,584.8611,52.25808,637.1192,-0.03901562,-0.03046563,0,0.03008899,0.004125,0.02780671,0,0.01584762,0.01185938,0.01129127,0,0.03526799,0.00034375,0.002186924,0,0.008201183
3524.3991,586.1003,51.63679,637.7371,-0.02423437,-0.01146409,0,0.02998344,0.004640625,0.02662324,0,0.01581777,0.0089375,0.01121692,0,0.03532904,0.001375,0.000633777,0,0.00824523
3524.4,588.5787,50.39422,638.973,-0.02182812,-0.01182066,0,0.02988141,-0.001375,0.02092794,0,0.01577301,0.01632813,0.01337831,0,0.03539051,0.000859375,0.002460089,0,0.008302139
3524.4009,588.5787,50.39422,639.2811,-0.03403125,-0.01963706,0,0.02978189,-0.004296875,0.01692164,0,0.01574316,0.0048125,0.008076626,0,0.0354531,0.0020625,0.002451354,0,0.008373415
3524.4018,590.4375,49.15164,639.5891,-0.03403125,-0.02205949,0,0.02968342,-0.009453125,0.01058316,0,0.01569839,-0.002234375,-0.006502243,0,0.03551682,-0.00309375,-0.00217204,0,0.008451904
3524.4027,590.4375,46.66649,637.104,-0.03609375,-0.02026093,0,0.02958426,-0.01890625,0.00161053,0,0.01565363,-0.02303125,-0.02057301,0,0.03558438,-0.008421875,-0.006952751,0,0.008530611
3524.4036,589.8179,44.80263,634.6205,-0.0295625,-0.01515529,0,0.02948379,-0.02028125,-0.002809807,0,0.01562378,-0.0055,-0.008750251,0,0.03565651,-0.0020625,-0.001437162,0,0.008610925
3524.4045,589.8179,45.42392,635.2418,-0.03454687,-0.01755447,0,0.02938263,-0.0165,0.002642122,0,0.01557902,0.000171875,-0.000159329,0,0.03573685,0.01117188,0.01299711,0,0.00870669
3524.4054,590.4375,44.18135,634.6188,-0.03660937,-0.01945181,0,0.02928076,-0.0103125,0.005208131,0,0.01553425,0.003953125,0.002946726,0,0.03582944,0.02457813,0.02557422,0,0.008828689
3524.4063,592.9159,41.6962,634.6121,-0.02698437,-0.008920418,0,0.02917784,-0.02165625,-0.005139905,0,0.01550441,0.01632813,0.01342186,0,0.03593106,0.02028125,0.02188823,0,0.008976736
3524.4072,594.1551,39.83234,633.9874,-0.02010937,-0.000335884,0,0.0290746,-0.02114062,-0.006709469,0,0.01547456,0.028875,0.02883448,0,0.03603917,0.0089375,0.01042918,0,0.009146688
3524.4081,594.7747,37.96848,632.7432,-0.02303125,-0.003583772,0,0.02897104,-0.01615625,-0.003078253,0,0.01542979,0.05173438,0.04834583,0,0.03615217,0.000859375,0.002374393,0,0.009329966
3524.409,594.7747,36.10461,630.8793,-0.02285937,-0.001038805,0,0.0288671,-0.02767187,-0.01425762,0,0.01539995,0.03592188,0.03493279,0,0.03625983,-0.01185937,-0.0103702,0,0.009524166
3524.4099,594.7747,36.10461,631.1882,-0.01082812,0.01041235,0,0.02876292,-0.03471875,-0.02468325,0,0.0153701,0.02285938,0.02020286,0,0.03638514,-0.01925,-0.01736769,0,0.009723466
3524.4108,596.0139,35.48333,631.4973,-0.0165,0.006904603,51.81363,0.02865896,-0.033,-0.02157322,38.70435,0.01532534,0.0213125,0.0195198,4.404312,0.03654473,-0.01375,-0.01269089,51.52608,0.009919997
3524.4117,596.6335,34.86204,631.4955,-0.02045312,0.002526108,51.81363,0.02855591,-0.03007812,-0.02183332,38.70435,0.01529549,0.007390625,0.004427639,4.404312,0.03671634,-0.009453125,-0.00716939,51.52608,0.01011294
3524.4126,597.8727,34.86204,632.7347,-0.01323437,0.01178187,51.81363,0.02845376,-0.03901562,-0.03068604,38.70435,0.01526565,0.01254688,0.01155879,4.404312,0.03689091,-0.0061875,-0.00534086,51.52608,0.01030194
3524.4135,599.7315,34.24075,633.9723,-0.0171875,0.006985297,51.81363,0.02835324,-0.03471875,-0.02731582,38.70435,0.01522088,0.0199375,0.01555048,4.404312,0.03706731,-0.008765625,-0.006664887,51.52608,0.01048821
3524.4144,600.3511,31.7556,632.1067,-0.0323125,-0.005515079,51.81363,0.02825505,-0.02526562,-0.02022754,38.70435,0.01517612,0.01271875,0.01276366,4.404312,0.03724283,-0.00653125,-0.005292453,51.52608,0.01067177
3524.4153,600.9707,30.51303,631.4837,-0.033,-0.008049298,51.81363,0.02815872,-0.02904687,-0.02250153,38.70435,0.01513135,0.017875,0.01318095,4.404312,0.03741918,-0.005328125,-0.003979199,51.52608,0.01085352
3524.4162,600.3511,29.89174,630.2428,-0.039875,-0.01166997,51.81363,0.02806362,-0.01770312,-0.01509237,38.70435,0.01508658,-0.0268125,-0.02763622,4.404312,0.03759513,-0.006359375,-0.004518758,51.52608,0.01103355
3524.4171,600.3511,28.64917,629.0002,-0.03867187,-0.01271512,51.81363,0.02796877,-0.008078125,-0.002985144,38.70435,0.01502689,-0.03282812,-0.03571388,4.404312,0.03776907,-0.00275,-0.002001771,51.52608,0.01121183
3524.418,601.5903,27.40659,628.9969,-0.03420312,-0.005609494,51.81363,0.02787357,-0.001890625,-0.000518951,38.70435,0.01498213,0.02285938,0.01989755,4.404312,0.03794413,-0.0020625,-0.000195246,51.52608,0.01138825
3524.4189,601.5903,27.40659,629.6156,-0.0309375,-0.003466819,51.81363,0.02777873,-0.00721875,-0.003983217,38.70435,0.01493736,0.05551563,0.05448214,4.404312,0.03811947,-0.004125,-0.003170122,51.52608,0.01156279
3524.4198,603.4491,26.78531,630.2344,-0.03695312,-0.008825691,51.81363,0.02768518,-0.009625,-0.008693939,38.70435,0.01489259,0.03660938,0.03302105,4.404312,0.03828784,-0.007046875,-0.006009912,51.52608,0.01173651
3524.4207,604.6883,24.30016,628.9885,-0.03729687,-0.008397525,51.81363,0.02759321,-0.008765625,-0.007187884,38.70435,0.0148329,-0.0006875,-0.002286539,4.404312,0.03845354,-0.0055,-0.003673245,51.52608,0.01190921
3524.4216,605.9275,23.05758,628.985,-0.0309375,-0.003298852,51.81363,0.02750338,-0.0034375,-0.002645847,38.70435,0.01478814,0.007390625,0.005738969,4.404312,0.03861895,-0.0048125,-0.004860195,51.52608,0.01208052
3524.4225,606.5471,21.81501,628.3621,-0.02475,0.004704023,51.81363,0.02741578,6.25E-16,0.00057472,38.70435,0.01474337,-0.0020625,-0.005899201,4.404312,0.03878436,-0.01426562,-0.01174383,51.52608,0.01225121
3524.4234,607.1667,21.19372,628.3604,-0.01426562,0.01332278,51.81363,0.02732908,0.00584375,0.006576264,38.70435,0.0146986,-0.059125,-0.05861802,4.404312,0.03895063,-0.01426562,-0.01476104,51.52608,0.01242018
3524.4243,606.5471,21.19372,627.7408,-0.0185625,0.01060879,51.81363,0.02724209,0.01271875,0.01309984,38.70435,0.01463891,-0.05689062,-0.06156071,4.404312,0.03911047,-0.01323437,-0.01082802,51.52608,0.01258608
3524.4252,607.1667,21.19372,628.3604,-0.01340625,0.01406205,51.81363,0.02715542,0.01907813,0.01985439,38.70435,0.01459415,-0.01701562,-0.01687537,4.404312,0.03926292,-0.0048125,-0.004875737,51.52608,0.01274962
3524.4261,610.2647,19.95115,630.2158,-0.00584375,0.02295084,51.81363,0.02706878,0.02475,0.02570952,38.70435,0.01454938,0.03025,0.02758977,4.404312,0.03941547,-0.0061875,-0.004435784,51.52608,0.01291141
3524.427,612.1235,17.466,629.5895,-0.007046875,0.01960762,51.81363,0.02698067,0.02560938,0.02662852,38.70435,0.01448969,0.01615625,0.01375976,4.404312,0.03956798,6.25E-16,0.000588974,51.52608,0.01307161
3524.4279,612.1235,17.466,628.6584,-0.007734375,0.02085995,51.81363,0.02689118,0.02148438,0.0236037,38.70435,0.01443,-0.07751562,-0.07732842,4.404312,0.03972074,0.00584375,0.00725098,51.52608,0.01323002
3524.4288,611.5039,16.22343,627.7273,-0.004125,0.02140574,51.81363,0.02680027,0.01546875,0.01711347,38.70435,0.01437031,-0.1514219,-0.1557065,4.404312,0.03986303,0.0020625,0.002799706,51.52608,0.01338638
3524.4297,610.8843,15.60214,626.4864,-0.01014062,0.01765165,51.81363,0.02670787,0.01220313,0.01576597,38.70435,0.01431063,-0.1412812,-0.1401198,4.404312,0.03995789,0.00171875,0.00348938,51.52608,0.01354099
3524.4306,610.8843,14.35957,625.2438,-0.009109375,0.01601121,51.81363,0.02661431,0.01839063,0.02129513,38.70435,0.01425094,-0.05001562,-0.05382346,4.404312,0.04001413,0.006703125,0.007164358,51.52608,0.01369385
3524.4315,610.8843,14.35957,625.2438,-0.015125,0.01054297,51.81363,0.02651995,0.01254688,0.01755063,38.70435,0.01417633,0.002234375,0.002329233,4.404312,0.04006639,0.00584375,0.008187787,51.52608,0.01384534
3524.4324,611.5039,13.11699,624.6208,-0.01375,0.01184991,51.81363,0.02642549,0.003609375,0.008537423,38.70435,0.01411664,0.01220313,0.009948321,4.404312,0.04012184,0.01392188,0.01439126,51.52608,0.01399623
3524.4333,612.7431,12.4957,625.2388,-0.0165,0.006363561,51.81363,0.02633091,-0.00240625,0.003930325,38.70435,0.01405695,0.01357813,0.01260357,4.404312,0.04017946,0.012375,0.01483862,51.52608,0.01414505
3524.4342,614.6019,10.01056,624.6124,-0.031625,-0.005859452,51.81363,0.02623673,-0.0116875,-0.004095463,38.70435,0.01399726,0.0213125,0.01961194,4.404312,0.04023788,0.009796875,0.01089402,51.52608,0.01429112
3524.4351,615.8411,8.146694,623.9877,-0.02629687,-0.0054212,51.81363,0.02614311,-0.01839062,-0.01068878,38.70435,0.01393757,0.04795313,0.0472243,4.404312,0.0402973,0.006359375,0.008585044,51.52608,0.01443528
3524.436,615.2215,7.525407,622.7468,-0.02354687,0.000942308,51.81363,0.02605036,-0.02165625,-0.01114725,38.70435,0.0138928,0.05946875,0.05722978,4.404312,0.04035496,0.005671875,0.007500789,51.52608,0.01457806
3524.4369,615.2215,7.525407,622.4379,-0.01220312,0.008072218,51.81363,0.02595819,-0.01976562,-0.01040643,38.70435,0.01383311,0.03489063,0.03462811,4.404312,0.04040801,0.007390625,0.009732247,51.52608,0.01471991
3524.4378,613.9823,8.146694,622.1289,-0.033,-0.01084312,51.81363,0.0258665,-0.0171875,-0.003943658,38.70435,0.01377342,0.03626563,0.03416128,4.404312,0.04046005,0.008765625,0.01076926,51.52608,0.0148609
3524.4387,614.6019,9.389268,623.9912,-0.05671875,-0.03668019,51.81363,0.02577558,-0.009453125,0.002074691,38.70435,0.01371374,0.03798438,0.03667204,4.404312,0.04050981,0.00446875,0.007587825,51.52608,0.01500082
3524.4396,616.4607,9.389268,625.8499,-0.04778125,-0.02759005,51.81363,0.02568086,-0.01340625,0.002097458,38.70435,0.01365405,0.0226875,0.02235059,4.404312,0.0405572,-0.00275,-0.001023873,51.52608,0.01513976
3524.4405,617.6999,8.146694,625.8465,-0.04039062,-0.02139166,51.81363,0.02558389,-0.01014062,0.004042695,38.70435,0.01359436,0.04039063,0.03670315,4.404312,0.04060751,-0.007734375,-0.00373274,51.52608,0.01527773
3524.4414,617.6999,6.90412,624.6039,-0.04125,-0.02197455,51.81363,0.02548577,-0.01546875,0.00181206,38.70435,0.01354959,0.06273438,0.06442355,4.404312,0.04069081,-0.002578125,-0.000872479,51.52608,0.01541465
3524.4423,617.6999,5.040259,622.7401,-0.02835937,-0.01105621,51.81363,0.02538688,-0.02096875,-0.003956059,38.70435,0.0134899,0.04073438,0.0354338,4.404312,0.04079576,-0.01117187,-0.006858681,51.52608,0.01555079
3524.4432,617.6999,3.797685,621.4975,-0.02354687,-0.004884731,51.81363,0.02528884,-0.02509375,-0.006240385,38.70435,0.01343021,-0.009796875,-0.007935034,4.404312,0.04089905,-0.01220312,-0.009926073,51.52608,0.01568617
3524.4441,617.0803,5.040259,622.1205,-0.01254687,0.003542932,51.81363,0.02519206,-0.0323125,-0.01278258,38.70435,0.01337052,0.00515625,0.000487658,4.404312,0.04100327,-0.01185937,-0.007759806,51.52608,0.01582011
3524.445,618.3194,5.040259,623.3597,-0.008078125,0.00928941,51.81363,0.02509609,-0.03764062,-0.01715057,38.70435,0.01331083,-0.003609375,-0.003797997,4.404312,0.04110843,-0.0089375,-0.005951305,51.52608,0.01595389
3524.4459,618.3194,5.040259,623.358,-0.00378125,0.01215861,51.81363,0.02500025,-0.03454687,-0.01310333,38.70435,0.01326607,-0.03695312,-0.03957307,4.404312,0.04121409,-0.0055,-0.00154009,51.52608,0.01608871
3524.4468,619.5586,3.797685,623.3563,0.007046875,0.02255382,51.81363,0.02490372,-0.03489062,-0.01273713,38.70435,0.01320638,-0.04485937,-0.04765796,4.404312,0.04131661,-0.0055,-0.002243346,51.52608,0.01622242
3524.4477,621.4174,3.176397,624.5938,6.25E-16,0.01621641,51.81363,0.02480529,-0.03471875,-0.01187648,38.70435,0.01314669,-0.005671875,-0.006751761,4.404312,0.04141551,-0.0055,-0.001336167,51.52608,0.01635537
3524.4486,621.4174,1.933823,623.3513,-0.0144375,-0.000363215,51.81363,0.02470566,-0.02698437,-0.003507121,38.70435,0.01310192,0.05104688,0.04661313,4.404312,0.04151442,0.000859375,0.003967142,51.52608,0.01648797
3524.4495,621.4174,1.933823,623.3513,-0.01082812,0.00515941,51.81363,0.02460579,-0.02629687,-0.002308316,38.70435,0.01304223,0.0419375,0.04118156,4.404312,0.04161039,0.00034375,0.004722115,51.52608,0.01661986
3524.4504,621.4174,2.55511,623.9725,-0.0075625,0.006127952,51.81363,0.02450551,-0.03007812,-0.005922991,38.70435,0.01298255,0.02182813,0.0164837,4.404312,0.04170789,0.00171875,0.004669916,51.52608,0.016751
3524.4513,621.4174,3.176397,624.5938,-0.031625,-0.01643447,51.81363,0.02440496,-0.02354687,0.001409424,38.70435,0.01293778,0.02492188,0.02421896,4.404312,0.04180663,-0.002234375,0.002001397,51.52608,0.0168819
3524.4522,621.4174,3.797685,625.2151,-0.04004687,-0.02614093,51.81363,0.02430312,-0.0158125,0.008432836,38.70435,0.01287809,0.02732813,0.02071028,4.404312,0.04190406,-0.004296875,-0.001358379,51.52608,0.0170119
3524.4531,621.4174,4.418972,625.8364,-0.03935937,-0.02478019,51.81363,0.02419909,-0.01890625,0.006611793,38.70435,0.01283332,0.02114063,0.02088241,4.404312,0.04200085,-0.00378125,5.02E-06,51.52608,0.01714173
3524.454,622.037,2.55511,624.5922,-0.04039062,-0.02645287,51.81363,0.02409404,-0.01907812,0.004941649,38.70435,0.01278856,0.04176563,0.03361273,4.404312,0.04209673,-0.001203125,0.001667579,51.52608,0.01727131
3524.4549,622.037,2.55511,623.0398,-0.03265625,-0.01796319,51.81363,0.02398818,-0.02114062,0.004284052,38.70435,0.01272887,0.02664063,0.02629025,4.404312,0.04219047,-0.0020625,0.001170247,51.52608,0.01740065
3524.4558,621.4174,0.0699619,621.4874,-0.02251562,-0.008862542,51.81363,0.02388675,-0.02251562,0.001102317,38.70435,0.0126841,0.01185938,0.003417144,4.404312,0.04228287,-0.0055,-0.00284325,51.52608,0.01752955
3524.4567,620.7978,0.691249,621.4891,-0.015125,5.61E-05,51.81363,0.02379862,-0.02732812,-0.002650212,38.70435,0.01263933,-0.01460937,-0.01704842,4.404312,0.04237596,-0.008078125,-0.005546222,51.52608,0.01765778
3524.4576,619.5586,0.691249,620.2499,-0.00584375,0.007828719,51.81363,0.02372722,-0.0199375,0.003021605,38.70435,0.01257964,-0.006875,-0.01351278,4.404312,0.0424687,-0.008421875,-0.005977882,51.52608,0.0177852
3524.4585,620.7978,1.312536,622.1104,-0.0075625,0.007775965,51.81363,0.02367093,-0.01151562,0.01189966,38.70435,0.01253488,-0.01925,-0.02557164,4.404312,0.04256115,-0.009109375,-0.007524072,51.52608,0.0179117
3524.4594,622.6566,1.312536,623.9692,0.00171875,0.01619075,51.81363,0.02362928,-0.01409375,0.007900516,38.70435,0.01249011,-0.07992187,-0.08393598,4.404312,0.04265332,-0.008078125,-0.005876582,51.52608,0.01803719
3524.4603,623.2762,0.0699619,623.3462,0.009625,0.0246902,51.81363,0.02360045,-0.01460937,0.00710401,38.70435,0.01244534,-0.0900625,-0.1000197,4.404312,0.04273505,-0.007734375,-0.007106968,51.52608,0.01816237
3524.4612,623.8958,-1.172612,622.7232,0.008421875,0.02405027,51.81363,0.023579,-0.005671875,0.01516438,38.70435,0.01240058,-0.0460625,-0.04881478,4.404312,0.04280009,-0.009109375,-0.007487939,51.52608,0.01828718
3524.4621,622.6566,0.0699619,622.7266,0.00515625,0.02018689,51.81363,0.02356077,-0.00825,0.01137132,38.70435,0.01235581,-0.02114062,-0.03272729,4.404312,0.04286137,6.25E-16,-2.38E-05,51.52608,0.01841128
3524.463,621.4174,1.312536,622.73,-0.01048437,0.00585135,51.81363,0.02354299,-0.01890625,0.000582275,38.70435,0.01231104,-0.03471875,-0.0383315,4.404312,0.04292342,0.00171875,0.002359369,51.52608,0.01853509
3524.4639,621.4174,1.312536,622.7308,-0.0350625,-0.01932773,51.81363,0.02353123,-0.02234375,-0.00494828,38.70435,0.01226628,0.0254375,0.01387893,4.404312,0.04298643,0.00446875,0.003935247,51.52608,0.01865905
3524.4648,620.7978,1.933823,622.7317,-0.06153125,-0.04507741,51.81363,0.02352846,-0.02423437,-0.006506315,38.70435,0.01222151,0.05035938,0.04508939,4.404312,0.04304914,0.0075625,0.007310645,51.52608,0.01878263
3524.4657,620.7978,3.797685,624.5955,-0.06204687,-0.04525141,51.81363,0.02353036,-0.02526562,-0.009814139,38.70435,0.01217674,0.031625,0.02010159,4.404312,0.04311125,0.0089375,0.007538154,51.52608,0.01890548
3524.4666,621.4174,3.176397,624.5938,-0.03970312,-0.02303205,51.81363,0.02353216,-0.03059375,-0.01520504,38.70435,0.01213198,0.01598438,0.009763349,4.404312,0.04317534,0.009109375,0.008479658,51.52608,0.01902782
3524.4675,622.6566,1.312536,623.9692,-0.02664062,-0.009197249,51.81363,0.02353681,-0.02698437,-0.01311245,38.70435,0.01208721,0.0144375,0.002068466,4.404312,0.04324197,0.005328125,0.002672047,51.52608,0.01914959
3524.4684,622.037,0.0699619,622.107,-0.01289062,0.004576108,51.81363,0.02354944,-0.02251562,-0.009697367,38.70435,0.01204244,0.006875,0.000480777,4.404312,0.04331375,-0.00034375,-0.00116607,51.52608,0.01927095
3524.4693,620.7978,0.0699619,620.8678,-0.000171875,0.01735916,51.81363,0.02357208,-0.02165625,-0.009342192,38.70435,0.01199768,0.0171875,0.003831426,4.404312,0.04338878,0.004984375,0.001403569,51.52608,0.0193919
3524.4702,620.1782,0.0699619,620.2482,-0.00309375,0.01534535,51.81363,0.02360511,-0.01426562,-0.003662744,38.70435,0.01195291,-0.0075625,-0.01442935,4.404312,0.04346426,6.25E-16,-0.00154912,51.52608,0.01951232
3524.4711,620.7978,1.312536,622.1104,-0.006359375,0.01136204,51.81363,0.02364826,-0.01048437,-9.03E-06,38.70435,0.01190814,0.00584375,-0.007579706,4.404312,0.04353954,6.25E-16,-0.003608226,51.52608,0.01963203
3524.472,622.037,1.933823,623.9709,-0.005671875,0.01312927,51.81363,0.02369659,-0.01254687,-0.003591501,38.70435,0.01186338,0.01959375,0.01137841,4.404312,0.04361607,-0.00171875,-0.004570987,51.52608,0.01975211
3524.4729,622.037,1.933823,624.2806,0.007046875,0.02560246,51.81363,0.02374863,-0.01529687,-0.006699736,38.70435,0.01181861,0.01890625,0.006425638,4.404312,0.04369409,-0.00275,-0.005867359,51.52608,0.01987477
3524.4738,622.6566,1.933823,624.5905,0.03385938,0.05222205,51.81363,0.02379983,-0.00996875,-0.002369171,38.70435,0.01178877,0.0185625,0.008772722,4.404312,0.04377353,-0.00378125,-0.00766539,51.52608,0.01999831
3524.4747,622.6566,1.312536,623.9692,0.05414063,0.0739058,51.81363,0.02384185,-0.007390625,-0.000257886,38.70435,0.01175892,0.02423438,0.01270455,4.404312,0.04385341,-0.001546875,-0.004516201,51.52608,0.02012174
3524.4756,623.2762,0.691249,623.9675,0.04846875,0.06617123,51.81363,0.02386616,-0.01426562,-0.007925364,38.70435,0.01172908,0.01684375,0.006289912,4.404312,0.04393377,0.01254688,0.008567004,51.52608,0.02024461
3524.4765,622.6566,0.691249,623.3478,0.017875,0.03845285,51.81363,0.02387954,-0.01289062,-0.0067809,38.70435,0.01169923,0.01065625,-0.000681806,4.404312,0.04401463,0.01082813,0.007490405,51.52608,0.02036712
3524.4774,621.4174,0.691249,622.1086,-0.00240625,0.01507421,51.81363,0.02390057,-0.0075625,-0.002054018,38.70435,0.01166939,0.00446875,-0.005702411,4.404312,0.0440963,0.00378125,0.000356262,51.52608,0.02049009
3524.4783,620.7978,2.55511,623.353,-0.02234375,-0.001820219,51.81363,0.0239415,-0.0103125,-0.005133914,38.70435,0.01163954,0.01546875,0.003830619,4.404312,0.04417845,0.002921875,-0.000648726,51.52608,0.02061372
3524.4792,622.6566,3.176397,625.833,-0.01770312,0.000212088,51.81363,0.02400354,-0.00790625,-0.002482863,38.70435,0.0116097,0.01821875,0.008873465,4.404312,0.04426171,-0.01151562,-0.01442443,51.52608,0.0207373
3524.4801,623.2762,1.933823,625.2101,-0.0020625,0.01757499,51.81363,0.02407772,-0.00309375,0.0012571,38.70435,0.01157985,0.011,-0.000373677,4.404312,0.04434645,-0.01770312,-0.02086452,51.52608,0.02085963
3524.481,623.8958,0.0699619,623.9658,-0.01185937,0.006940818,51.81363,0.02415382,0.000171875,0.005948012,38.70435,0.01155001,0.02457813,0.015483,4.404312,0.04443321,-0.01426562,-0.01677399,51.52608,0.0209798
3524.4819,623.8958,0.0699619,623.9658,-0.04039062,-0.02214087,51.81363,0.02423072,0.01048438,0.01471287,38.70435,0.01153509,0.04485938,0.03519695,4.404312,0.04452096,-0.01615625,-0.01853622,51.52608,0.02109832
3524.4828,623.8958,0.0699619,623.9658,-0.05620312,-0.03647946,51.81363,0.02431277,0.01289063,0.01883481,38.70435,0.01152017,0.03935938,0.02957739,4.404312,0.04460832,-0.007734375,-0.009473673,51.52608,0.02121494
3524.4837,623.8958,0.0699619,623.9658,-0.07425,-0.05740955,51.81363,0.02440082,0.0116875,0.01689631,38.70435,0.01149032,0.03557813,0.02881749,4.404312,0.04469784,0.003609375,0.001910963,51.52608,0.02133061
3524.4846,623.8958,0.691249,624.587,-0.1010625,-0.08085527,51.81363,0.02448781,0.000859375,0.006750339,38.70435,0.0114754,0.03935938,0.02868181,4.404312,0.04478662,0.00171875,0.001270564,51.52608,0.02144569
3524.4855,625.135,1.312536,626.4476,-0.089375,-0.07344293,51.81363,0.02456338,-0.00275,0.004044082,38.70435,0.01146048,0.01770313,0.01392396,4.404312,0.04487878,-0.001203125,-0.00215779,51.52608,0.02156023
3524.4864,625.7546,2.55511,628.3097,-0.067375,-0.04751426,51.81363,0.02463164,0.002234375,0.00858645,38.70435,0.01143063,-0.01959375,-0.03010683,4.404312,0.04498529,-0.0034375,-0.002562578,51.52608,0.02167443
3524.4873,626.3742,2.55511,628.9293,-0.0446875,-0.02888909,51.81363,0.02469666,-0.004296875,0.003828438,38.70435,0.01143063,-0.08267187,-0.0845426,4.404312,0.04512051,0.0020625,0.002423014,51.52608,0.02178819
3524.4882,626.9938,0.691249,627.6851,-0.03901562,-0.02030904,51.81363,0.0247595,-0.000859375,0.006983152,38.70435,0.01141571,-0.06342187,-0.0718581,4.404312,0.04527378,0.007734375,0.009610891,51.52608,0.02190154
3524.4891,626.9938,0.0699619,627.0638,-0.02990625,-0.01374857,51.81363,0.02482301,0.00446875,0.01349762,38.70435,0.01140079,-0.02990625,-0.03134734,4.404312,0.04542843,0.01426563,0.01643515,51.52608,0.02201423
3524.49,625.7546,1.312536,627.0672,-0.02560937,-0.008257095,51.81363,0.02489235,-0.000859375,0.009052622,38.70435,0.01138587,-0.02285937,-0.02733869,4.404312,0.04558232,0.01495313,0.01790385,51.52608,0.02212624
3524.4909,625.7546,1.312536,627.068,-0.02457812,-0.008271225,51.81363,0.02496877,-0.00515625,0.005027385,38.70435,0.01137094,-0.00275,-0.004853582,4.404312,0.04573479,0.009109375,0.01289053,51.52608,0.02223752
3524.4918,625.135,1.933823,627.0688,-0.02578125,-0.009232043,51.81363,0.02504796,-0.009109375,0.002595968,38.70435,0.01135602,0.02475,0.02525672,4.404312,0.04588684,0.001546875,0.006178536,51.52608,0.02234787
3524.4927,625.7546,1.933823,627.6885,-0.01925,-0.003524753,51.81363,0.02512765,-0.008765625,0.003299277,38.70435,0.0113411,0.03695313,0.03417676,4.404312,0.04603751,-0.00584375,-0.000936407,51.52608,0.02245755
3524.4936,626.9938,1.312536,628.3064,-0.01048437,0.006085015,51.81363,0.02520725,-0.00825,0.004746215,38.70435,0.0113411,0.04039063,0.04554539,4.404312,0.04618627,-0.008421875,-0.001788891,51.52608,0.02256672
3524.4945,628.233,0.0699619,628.303,-0.0034375,0.01117291,51.81363,0.0252865,-0.01289062,0.001371701,38.70435,0.01132618,0.0158125,0.01377159,4.404312,0.04633182,-0.00515625,0.001019578,51.52608,0.02267553
3524.4954,628.233,-0.5513252,627.6817,-0.001890625,0.01499543,51.81363,0.02536568,-0.01735937,-0.003016839,38.70435,0.01131125,-0.04296875,-0.03494679,4.404312,0.04647736,0.00446875,0.01251278,51.52608,0.02278432
3524.4963,627.6134,-0.5513252,627.0621,0.0075625,0.02138286,51.81363,0.02544434,-0.02165625,-0.005648374,38.70435,0.01131125,-0.02526562,-0.02411892,4.404312,0.04662209,0.02560938,0.03385834,51.52608,0.02289281
3524.4972,628.233,0.0699619,628.303,0.009625,0.02626064,51.81363,0.0255216,-0.01890625,-0.002792982,38.70435,0.01129633,-0.01426562,-0.005654627,4.404312,0.04676635,0.03471875,0.04326277,51.52608,0.02299718
3524.4981,628.233,1.312536,629.5456,0.01323438,0.02737266,51.81363,0.0255974,-0.01357812,0.003569286,38.70435,0.01129633,-0.0165,-0.0101378,4.404312,0.04691044,0.03626563,0.04699454,51.52608,0.02309482
3524.499,629.4722,3.176397,632.6486,0.01014063,0.02561303,51.81363,0.02567249,-0.0089375,0.008990639,38.70435,0.01129633,-0.01323437,-0.005123881,4.404312,0.04705442,0.04142188,0.05034277,51.52608,0.02318478
3524.4999,629.4722,3.176397,633.2674,0.004125,0.01953826,51.81363,0.02574676,-0.011,0.007178217,38.70435,0.01129633,-0.007734375,0.003872327,4.404312,0.04719823,0.03935938,0.0518611,51.52608,0.02326587
3524.5008,631.331,2.55511,633.8861,-0.00928125,0.004823166,51.81363,0.02581985,-0.01546875,0.003705272,38.70435,0.01131125,-0.0020625,0.006548079,4.404312,0.04734184,0.045375,0.0554576,51.52608,0.0233375
3524.5017,632.5702,0.691249,633.2615,-0.0199375,-0.003353486,51.81363,0.02589288,-0.01014062,0.009187191,38.70435,0.01131125,0.01014063,0.02521932,4.404312,0.04748523,0.02646875,0.0395047,51.52608,0.02339845
3524.5026,631.9506,0.0699619,632.0206,-0.01323437,0.000480149,51.81363,0.02596627,-0.01615625,0.003705354,38.70435,0.01132618,0.04760938,0.05852868,4.404312,0.04762729,-0.00240625,0.009483135,51.52608,0.02345394
3524.5035,630.0918,1.312536,631.4044,-0.01409375,0.002658846,51.81363,0.02604042,-0.0309375,-0.0107635,38.70435,0.0113411,0.03935938,0.05633482,4.404312,0.04776434,-0.03575,-0.02282971,51.52608,0.02350902
3524.5044,629.4722,1.933823,631.4061,-0.00721875,0.007472684,51.81363,0.02611524,-0.0336875,-0.01325012,38.70435,0.01135602,0.03867188,0.05245438,4.404312,0.04789695,-0.07253125,-0.05914327,51.52608,0.0235624
3524.5053,629.4722,1.933823,631.4061,-0.003609375,0.01261881,51.81363,0.02619028,-0.03660937,-0.01630644,38.70435,0.01137094,0.06153125,0.08036514,4.404312,0.0480247,-0.0928125,-0.07980833,51.52608,0.02360402
3524.5062,631.331,0.691249,632.0222,-0.00103125,0.01510894,51.81363,0.02626519,-0.04279687,-0.02185446,38.70435,0.01138587,0.06479688,0.08052952,4.404312,0.04814142,-0.1007187,-0.08675667,51.52608,0.02362443
3524.5071,633.1898,0.0699619,633.2598,-0.0034375,0.01276257,51.81363,0.02633979,-0.04073437,-0.02075488,38.70435,0.01138587,0.05689063,0.07812958,4.404312,0.04824724,-0.09384375,-0.0804225,51.52608,0.02362055
3524.508,632.5702,-0.5513252,632.0189,-0.01271875,0.004222411,51.81363,0.02641391,-0.03592187,-0.01507168,38.70435,0.01140079,0.0625625,0.07955151,4.404312,0.04834291,-0.07734375,-0.06349398,51.52608,0.02359568
3524.5089,632.5702,-0.5513252,631.7091,-0.01392187,0.003354469,51.81363,0.02648779,-0.03351562,-0.01374961,38.70435,0.01140079,-0.0268125,-0.003696242,4.404312,0.04842874,-0.07253125,-0.05883891,51.52608,0.02355746
3524.5098,631.9506,-0.5513252,631.3993,-0.007046875,0.01011262,51.81363,0.02656145,-0.04004687,-0.020222,38.70435,0.01140079,-0.1560625,-0.1372403,4.404312,0.04851632,-0.0625625,-0.0489953,51.52608,0.02350757
3524.5107,631.9506,1.312536,633.2632,0.005671875,0.0243535,51.81363,0.02663464,-0.03626562,-0.0166085,38.70435,0.01140079,-0.2036719,-0.1802611,4.404312,0.04857427,-0.04245312,-0.02901219,51.52608,0.02344963
3524.5116,631.9506,2.55511,634.5057,0.01014063,0.02809858,51.81363,0.02670603,-0.02664062,-0.008343502,38.70435,0.01141571,-0.1330312,-0.1114813,4.404312,0.04857926,-0.031625,-0.01833926,51.52608,0.02338919
3524.5125,633.8094,3.176397,636.9858,-0.0055,0.01370214,51.81363,0.02677495,-0.02578125,-0.006729753,38.70435,0.01141571,-0.08078125,-0.0582059,4.404312,0.04856419,-0.01426562,-0.001534062,51.52608,0.02332775
3524.5134,635.0486,1.933823,636.9825,-0.008421875,0.01162766,51.81363,0.02684316,-0.01959375,-0.002653673,38.70435,0.01143063,-0.07442187,-0.05036073,4.404312,0.04854363,0.00240625,0.0151981,51.52608,0.02326626
3524.5143,635.0486,0.691249,635.7399,-0.01254687,0.006214418,51.81363,0.02691111,-0.01804687,-0.000457254,38.70435,0.01144555,-0.04039062,-0.01868264,4.404312,0.048519,0.003265625,0.01511716,51.52608,0.02320389
3524.5152,633.1898,1.312536,634.5024,-0.02664062,-0.003925899,51.81363,0.02697892,-0.009796875,0.006049173,38.70435,0.01146048,-0.01392187,0.01143781,4.404312,0.04849401,0.00446875,0.01629833,51.52608,0.02314065
3524.5161,631.9506,1.312536,633.2632,-0.01357812,0.004955489,51.81363,0.02704666,-0.0034375,0.01217734,38.70435,0.01149032,-0.008765625,0.01254111,4.404312,0.04846894,0.008421875,0.01944681,51.52608,0.02307638
3524.517,631.331,1.312536,632.6435,-0.01701562,0.007538558,51.81363,0.02711458,-0.00928125,0.005308885,38.70435,0.01150524,-0.03970312,-0.01432616,4.404312,0.04844382,0.0075625,0.01794368,51.52608,0.02301066
3524.5179,631.331,1.312536,633.2632,-0.02148437,-0.001888527,51.81363,0.02718247,-0.00721875,0.006499358,38.70435,0.01153509,-0.07596875,-0.05469522,4.404312,0.04841898,0.0061875,0.01639317,51.52608,0.02294373
3524.5188,632.5702,1.312536,633.8828,-0.04039062,-0.01543351,51.81363,0.02725054,-0.004125,0.008772577,38.70435,0.01155001,-0.064625,-0.04041237,4.404312,0.04839193,0.0061875,0.01494852,51.52608,0.02287584
3524.5197,633.8094,1.312536,635.122,-0.05310937,-0.03130048,51.81363,0.02731846,-0.01460937,-0.002526103,38.70435,0.01157985,-0.02165625,4.00E-05,4.404312,0.04836573,0.01185938,0.02087971,51.52608,0.02280706
3524.5206,634.429,0.691249,635.1202,-0.05929687,-0.03474769,51.81363,0.0273839,-0.01632812,-0.005369868,38.70435,0.0116097,-0.01546875,0.006277711,4.404312,0.04834299,0.01460938,0.02209701,51.52608,0.02273663
3524.5215,635.6682,-0.5513252,635.1169,-0.06067187,-0.03654968,51.81363,0.02744585,-0.01134375,-0.000777372,38.70435,0.01162462,-0.02526562,-0.002881436,4.404312,0.04832137,0.0089375,0.0160605,51.52608,0.02266442
3524.5224,634.429,-0.5513252,633.8777,-0.06342187,-0.03909869,51.81363,0.02750392,-0.01271875,-0.003609548,38.70435,0.01165447,-0.04571875,-0.02711116,4.404312,0.04830035,0.01478125,0.0215236,51.52608,0.02259114
3524.5233,633.8094,1.312536,635.122,-0.05190625,-0.02621777,51.81363,0.02755761,-0.01890625,-0.009840261,38.70435,0.01166939,-0.04657812,-0.02427555,4.404312,0.04827819,0.0158125,0.02057931,51.52608,0.02251605
3524.5242,634.429,2.55511,636.9841,-0.04245312,-0.01779068,51.81363,0.02761056,-0.01839062,-0.01091503,38.70435,0.01169923,-0.00034375,0.01578971,4.404312,0.0482557,0.00584375,0.01184914,51.52608,0.02243955
3524.5251,635.6682,3.176397,638.8446,-0.05139062,-0.02489779,51.81363,0.02766685,-0.01426562,-0.006629702,38.70435,0.01171415,0.007390625,0.02783624,4.404312,0.04823597,0.009109375,0.0119253,51.52608,0.02236269
3524.526,635.0486,1.933823,636.9825,-0.04915625,-0.0240094,51.81363,0.02772486,-0.01271875,-0.006536818,38.70435,0.011744,0.0199375,0.03476772,4.404312,0.04821817,0.007390625,0.01194253,51.52608,0.02228527
3524.5269,635.0486,1.933823,636.6718,-0.042625,-0.01554258,51.81363,0.02778297,-0.01065625,-0.004406231,38.70435,0.01175892,0.02492188,0.04215577,4.404312,0.04819891,0.009453125,0.01124639,51.52608,0.02220711
3524.5278,635.0486,1.312536,636.3612,-0.03059375,-0.005385878,51.81363,0.02784133,-0.000859375,0.004540812,38.70435,0.01178877,0.01942188,0.03312242,4.404312,0.04817747,0.00446875,0.006900309,51.52608,0.02212827
3524.5287,633.8094,0.691249,634.5007,-0.02182812,0.005946026,51.81363,0.02790013,0.0048125,0.009718439,38.70435,0.01181861,0.02285938,0.03689037,4.404312,0.04815443,0.00275,0.003963916,51.52608,0.02204897
