ChannelTitle=,0 Z Force Plate,1 Z Force Plate,Summed Z Force,ZForce %MVC,EMG1 RBack or Forearm,EMG1 RBack filtered,EMG1 RBack median power,EMG1 RBack smoothed,EMG2 RGlute,EMG2 RGlute filtered,EMG2 RGlute median power,EMG2 RGlute smoothed,EMG3 RHam,EMG3 RHam filtered,EMG3 RHam median power,EMG3 RHam smoothed,EMG4 RQuad,EMG4 RQuad filtered,EMG4 RQuad median power,EMG4 RQuad smoothed
461.97,584.2415,694.6689,1278.91,29.80618,-0.02767187,0.06863784,0,0.06128396,-0.00721875,-0.005215317,0,0.01799642,0.0075625,-0.01578883,0,0.0277016,-0.004640625,-0.001317702,0,0.005501767
461.9709,584.2415,694.6689,1278.91,29.80615,-0.0556875,0.06863784,0,0.06128396,6.25E-16,-0.005215317,0,0.01799642,-0.02767187,-0.01578883,0,0.0277016,-0.0061875,-0.001317702,0,0.005501767
461.9718,584.8611,694.0477,1278.909,29.80611,-0.1038125,0.06863784,0,0.06128396,0.01065625,-0.005215317,0,0.01799642,-0.07785937,-0.01578883,0,0.0277016,-0.007734375,-0.001317702,0,0.005501767
461.9727,584.8611,694.6689,1279.53,29.83555,-0.1533125,0.06863784,0,0.06128396,0.02217188,-0.005215317,0,0.01799642,-0.06892187,-0.01578883,0,0.0277016,-0.00515625,-0.001317702,0,0.005501767
461.9736,584.8611,694.6689,1279.53,29.83555,-0.12925,0.06863784,0,0.06128396,0.02028125,-0.005215317,0,0.01799642,-0.06548437,-0.01578883,0,0.0277016,-0.0006875,-0.001317702,0,0.005501767
461.9745,584.2415,694.6689,1278.91,29.80618,-0.0914375,0.06863784,0,0.06128396,0.0158125,-0.005215317,0,0.01799642,-0.03042187,-0.01578883,0,0.0277016,-0.00034375,-0.001317702,0,0.005501767
461.9754,584.2415,694.6689,1278.91,29.80618,-0.05139062,0.06863784,0,0.06128396,0.0213125,-0.005215317,0,0.01799642,0.0281875,-0.01578883,0,0.0277016,0.0055,-0.001317702,0,0.005501767
461.9763,584.8611,694.6689,1279.53,29.83555,-0.04571875,0.06863784,0,0.06128396,0.01804688,-0.005215317,0,0.01799642,0.03660938,-0.01578883,0,0.0277016,0.004296875,-0.001317702,0,0.005501767
461.9772,584.8611,694.6689,1279.53,29.83555,-0.07596875,0.06863784,0,0.06128396,0.01478125,-0.005215317,0,0.01799642,0.020625,-0.01578883,0,0.0277016,0.00275,-0.001317702,0,0.005501767
461.9781,585.4807,695.2902,1280.771,29.89436,-0.09246875,0.06863784,0,0.06128396,0.008421875,-0.005215317,0,0.01799642,0.01254688,-0.01578883,0,0.0277016,0.002578125,-0.001317702,0,0.005501767
461.979,585.4807,695.2902,1280.771,29.89436,-0.08851562,0.06863784,0,0.06128396,-0.001890625,-0.005215317,0,0.01799642,0.02320313,-0.01578883,0,0.0277016,0.001375,-0.001317702,0,0.005501767
461.9799,585.4807,695.2902,1280.771,29.89436,-0.07321875,0.06863784,0,0.06128396,-0.0061875,-0.005215317,0,0.01799642,0.04846875,-0.01578883,0,0.0277016,-0.00171875,-0.001317702,0,0.005501767
461.9808,585.4807,695.2902,1280.771,29.89436,-0.03832812,0.06863784,0,0.06128396,-0.006359375,-0.005215317,0,0.01799642,0.0385,-0.01578883,0,0.0277016,-0.008078125,-0.001317702,0,0.005501767
461.9817,584.2415,695.2902,1279.532,29.83563,-0.01546875,0.06863784,0,0.06128396,-0.01082812,-0.005215317,0,0.01799642,0.02165625,-0.01578883,0,0.0277016,-0.0089375,-0.001317702,0,0.005501767
461.9826,583.6219,695.9115,1279.533,29.83571,-0.015125,0.06863784,0,0.06128396,-0.0089375,-0.005215317,0,0.01799642,0.001375,-0.01578883,0,0.0277016,-0.00653125,-0.001317702,0,0.005501767
461.9835,582.3827,695.2902,1277.673,29.74753,0.000171875,0.06863784,0,0.06128396,-0.01117187,-0.005215317,0,0.01799642,-0.01323437,-0.01578883,0,0.0277016,-0.009453125,-0.001317702,0,0.005501767
461.9844,583.0023,693.4264,1276.429,29.68857,0.0130625,0.06863784,0,0.06128396,-0.0089375,-0.005215317,0,0.01799642,-0.02320312,-0.01578883,0,0.0277016,-0.0130625,-0.001317702,0,0.005501767
461.9853,583.6219,693.4264,1277.048,29.71793,0.0275,0.06863784,0,0.06128396,-0.006875,-0.005215317,0,0.01799642,-0.03471875,-0.01578883,0,0.0277016,-0.01735937,-0.001317702,0,0.005501767
461.9862,583.0023,694.0477,1277.05,29.71801,0.01546875,0.06863784,0,0.06128396,-0.004296875,-0.005215317,0,0.01799642,-0.03007812,-0.01578883,0,0.0277016,-0.01357812,-0.001317702,0,0.005501767
461.9871,581.7631,694.0477,1275.811,29.65928,0.02010938,0.06863784,0,0.06128396,0.00034375,-0.005215317,0,0.01799642,0.00034375,-0.01578883,0,0.0277016,-0.002578125,-0.001317702,0,0.005501767
461.988,582.3827,694.6689,1277.052,29.71809,0.01546875,0.06863784,0,0.06128396,0.0061875,-0.005215317,0,0.01799642,0.02457813,-0.01578883,0,0.0277016,-0.00240625,-0.001317702,0,0.005501767
461.9889,582.3827,694.6689,1277.051,29.71805,0.01478125,0.06863784,0,0.06128396,0.004296875,-0.005215317,0,0.01799642,0.04176563,-0.01578883,0,0.0277016,-0.000859375,-0.001317702,0,0.005501767
461.9898,583.0023,694.0477,1277.05,29.71801,0.01323438,0.06863784,0,0.06128396,-0.004984375,-0.005215317,0,0.01799642,0.08198438,-0.01578883,0,0.0277016,0.002234375,-0.001317702,0,0.005501767
461.9907,583.6219,694.0477,1277.67,29.74738,0.03128125,0.06863784,0,0.06128396,-0.0103125,-0.005215317,0,0.01799642,0.05207813,-0.01578883,0,0.0277016,-0.001375,-0.001317702,0,0.005501767
461.9916,583.6219,695.2902,1278.912,29.80626,0.05809375,0.06863784,0,0.06128396,-0.01959375,-0.005215317,0,0.01799642,-0.01684375,-0.01578883,0,0.0277016,-0.002234375,-0.001317702,0,0.005501767
461.9925,583.6219,695.9115,1279.533,29.83571,0.061875,0.07620497,0,0.06128396,-0.02423437,-0.009543593,0,0.01799642,-0.03901562,-0.03854117,0,0.0277016,0.00309375,0.003277732,0,0.005501767
461.9934,583.0023,695.2902,1278.292,29.77689,0.08834375,0.09935048,0,0.06128396,-0.0158125,-0.001710261,0,0.01799642,0.007734375,0.01168577,0,0.0277016,-0.00240625,-0.00147662,0,0.005501767
461.9943,582.3827,695.2902,1277.673,29.74753,0.1206563,0.1339641,0,0.06128396,-0.01667187,-0.001851881,0,0.01799642,0.0199375,0.01819424,0,0.0277016,-0.00721875,-0.006999045,0,0.005501767
461.9952,582.3827,695.2902,1277.673,29.74753,0.1411094,0.1532745,0,0.06128396,-0.023375,-0.00926253,0,0.01799642,-0.05259375,-0.0475704,0,0.0277016,-0.00515625,-0.004363506,0,0.005501767
461.9961,582.3827,694.6689,1277.052,29.71809,0.1062188,0.1187137,0,0.06128396,-0.02475,-0.01004105,0,0.01799642,-0.05723437,-0.05870746,0,0.0277016,-0.004125,-0.003639412,0,0.005501767
461.997,581.7631,694.0477,1275.811,29.65928,-0.006875,0.005453652,0,0.06128396,-0.02440625,-0.01015161,0,0.01799642,-0.02165625,-0.01812587,0,0.0277016,-0.006359375,-0.005946962,0,0.005501767
461.9979,581.7631,694.0477,1275.501,29.6446,-0.1215156,-0.1085227,0,0.06128396,-0.03059375,-0.01600235,0,0.01799642,0.01220313,0.0129709,0,0.0277016,-0.006875,-0.005962816,0,0.005501767
461.9988,581.1435,694.0477,1275.191,29.62991,-0.1729062,-0.1616354,0,0.06128396,-0.03609375,-0.02178396,0,0.01799642,0.015125,0.01630441,0,0.0277016,-0.009109375,-0.00906715,0,0.005501767
461.9997,581.7631,694.6689,1276.432,29.68873,-0.1777187,-0.1635645,0,0.06128396,-0.03540625,-0.02082945,0,0.01799642,-0.033,-0.03040667,0,0.0277016,-0.01014062,-0.009029772,0,0.005501767
462.0006,581.7631,694.0477,1275.811,29.65928,-0.1357812,-0.1253736,0,0.06128396,-0.03695312,-0.02266326,0,0.01799642,-0.05517187,-0.05485796,0,0.0277016,-0.002921875,-0.002821483,0,0.005501767
462.0015,581.7631,694.0477,1275.811,29.65928,-0.089375,-0.07499544,0,0.06128396,-0.04365625,-0.02906081,0,0.01799642,-0.01976562,-0.0174342,0,0.0277016,-0.00275,-0.001976872,0,0.005501767
462.0024,581.7631,693.4264,1275.189,29.62983,-0.0488125,-0.03778976,0,0.06128396,-0.03953125,-0.02523114,0,0.01799642,0.0130625,0.01459935,0,0.0277016,-0.00240625,-0.001742231,0,0.005501767
462.0033,582.3827,694.0477,1276.43,29.68865,-0.02148437,-0.008441262,0,0.06128396,-0.0323125,-0.01776334,0,0.01799642,0.028875,0.02945174,0,0.0277016,0.001375,0.001484306,0,0.005501767
462.0042,582.3827,694.6689,1277.052,29.71809,0.00309375,0.01588661,0,0.06128396,-0.03179687,-0.01741632,0,0.01799642,0.0336875,0.03698213,0,0.0277016,6.25278E-16,0.001262608,0,0.005501767
462.0051,581.7631,695.9115,1277.675,29.74761,0.005328125,0.01659486,0,0.06128396,-0.0336875,-0.0192316,0,0.01799642,0.03317188,0.03250838,0,0.0277016,6.25278E-16,-0.000259106,0,0.005501767
462.006,581.7631,695.9115,1278.296,29.77706,-0.01048437,0.003676643,0,0.06128396,-0.03575,-0.02128557,0,0.01799642,0.04365625,0.04734957,0,0.0277016,6.25278E-16,0.001287341,0,0.005501767
462.0069,581.7631,696.5328,1278.606,29.79174,-0.01460937,-0.004051339,0,0.06128396,-0.03385937,-0.01945634,0,0.01799642,0.04623438,0.04608347,0,0.0277016,0.00240625,0.002492804,0,0.005501767
462.0078,582.3827,696.5328,1278.916,29.80642,-0.02698437,-0.01284755,0,0.06128396,-0.03007812,-0.01560713,0,0.01799642,-0.008078125,-0.005574676,0,0.0277016,-0.0020625,-0.001413378,0,0.005501767
462.0087,581.7631,695.9115,1277.675,29.74761,-0.02320312,-0.01206485,0,0.06128396,-0.03042187,-0.01596958,0,0.01799642,-0.02148437,-0.02019941,0,0.0277016,-0.00515625,-0.004294698,0,0.005501767
462.0096,581.7631,695.2902,1277.053,29.71817,-0.02354687,-0.01025575,0,0.06128396,-0.02526562,-0.01089408,0,0.01799642,0.009453125,0.01074253,0,0.0277016,-0.00378125,-0.00384652,0,0.005501767
462.0105,581.7631,695.2902,1277.053,29.71817,-0.0295625,-0.01764859,0,0.06128396,-0.0185625,-0.003980097,0,0.01799642,0.02440625,0.02627949,0,0.0277016,-0.004125,-0.002795362,0,0.005501767
462.0114,581.1435,695.2902,1276.434,29.6888,-0.034375,-0.02152669,0,0.06128396,-0.0185625,-0.004314002,0,0.01799642,0.02921875,0.03071714,0,0.0277016,-0.00103125,-0.001210053,0,0.005501767
462.0123,581.1435,695.2902,1276.434,29.6888,-0.03935937,-0.02742701,0,0.06128396,-0.01357812,0.001063775,0,0.01799642,0.03007813,0.03104942,0,0.0277016,-0.0006875,0.000391273,0,0.005501767
462.0132,581.7631,694.6689,1276.432,29.68873,-0.03128125,-0.01809977,0,0.06128396,-0.006875,0.007445428,0,0.01799642,0.03557813,0.03834734,0,0.0277016,0.0055,0.005844999,0,0.005501767
462.0141,582.3827,695.2902,1277.673,29.74753,0.009453125,0.02091657,0,0.06128396,-0.01134375,0.003040735,0,0.01799642,0.01615625,0.01592691,0,0.0277016,0.006875,0.007326261,0,0.005501767
462.015,582.3827,695.2902,1277.053,29.71817,0.04675,0.06028255,0,0.06128396,-0.01460937,0.000187205,0,0.01799642,-0.055,-0.05148761,0,0.0277016,-0.00103125,-0.000134022,0,0.005501767
462.0159,581.7631,695.2902,1277.364,29.73289,0.059125,0.07059283,0,0.06128396,-0.00721875,0.006493766,0,0.01799642,-0.08473437,-0.08503254,0,0.0277016,-0.00515625,-0.005042593,0,0.005501767
462.0168,581.7631,695.9115,1277.675,29.74761,0.0460625,0.05912059,0,0.06128396,6.25E-16,0.01559063,0,0.01799642,-0.0818125,-0.07892656,0,0.0277016,-0.00515625,-0.004196642,0,0.005501767
462.0177,581.7631,695.9115,1277.675,29.74761,0.04176563,0.05414515,0,0.06128396,0.005671875,0.01860542,0,0.01799642,-0.05964062,-0.05885378,0,0.0277016,-0.002921875,-0.002630236,0,0.005501767
462.0186,581.7631,695.9115,1277.675,29.74761,0.02320313,0.03506489,0,0.06128396,0.00034375,0.01655465,0,0.01799642,-0.03059375,-0.02893041,0,0.0277016,-0.006015625,-0.005369669,0,0.005501767
462.0195,580.5239,696.5328,1277.057,29.71832,-0.02389062,-0.01025614,0,0.06128396,0.00378125,0.01639727,0,0.01799642,-0.01564062,-0.01376512,0,0.0277016,-0.0055,-0.004888795,0,0.005501767
462.0204,580.5239,695.9115,1276.435,29.68888,-0.04107812,-0.03025341,0,0.06128396,6.25E-16,0.01614557,0,0.01799642,-0.007390625,-0.00647817,0,0.0277016,-0.00240625,-0.001985926,0,0.005501767
462.0213,580.5239,694.6689,1275.193,29.63,-0.0336875,-0.01939208,0,0.06128396,0.000859375,0.01392768,0,0.01799642,-0.0116875,-0.009426185,0,0.0277016,-0.01014062,-0.009432968,0,0.005501767
462.0222,580.5239,694.6689,1275.193,29.63,-0.0309375,-0.02025461,0,0.06128396,-0.004296875,0.01108369,0,0.01799642,-0.0165,-0.01571332,0,0.0277016,-0.01185937,-0.01144061,0,0.005501767
462.0231,580.5239,695.2902,1275.814,29.65944,-0.055,-0.04105302,0,0.06128396,-0.00584375,0.008163274,0,0.01799642,-0.009453125,-0.007194308,0,0.0277016,-0.003609375,-0.002916478,0,0.005501767
462.024,580.5239,695.2902,1275.813,29.65936,-0.075625,-0.06426068,0,0.06128396,-0.009109375,0.00530723,0,0.01799642,-0.00034375,0.000506933,0,0.0277016,0.001375,0.00174066,0,0.005501767
462.0249,581.1435,694.6689,1276.432,29.68872,-0.08215625,-0.06910098,0,0.06128396,-0.01048437,0.004373688,0,0.01799642,0.01117188,0.01329107,0,0.0277016,0.004296875,0.005160057,0,0.005501767
462.0258,582.3827,694.6689,1277.052,29.71809,-0.06496875,-0.05274166,0,0.06128396,-0.00859375,0.005161495,0,0.01799642,0.01357813,0.01473621,0,0.0277016,0.006875,0.006970263,0,0.005501767
462.0267,583.0023,694.6689,1277.671,29.74746,-0.04571875,-0.03339557,0,0.06128396,-0.01134375,0.003950226,0,0.01799642,0.01220313,0.01372507,0,0.0277016,0.00825,0.009407185,0,0.005501767
462.0276,582.3827,695.2902,1277.673,29.74753,-0.01890625,-0.006110696,0,0.06128396,-0.01014062,0.003383335,0,0.01799642,0.04245313,0.04452727,0,0.0277016,0.01117188,0.01105633,0,0.005501767
462.0285,583.0023,695.9115,1278.914,29.80634,0.01323438,0.02513073,0,0.06128396,-0.01357812,0.001775463,0,0.01799642,0.03076563,0.03120134,0,0.0277016,0.0034375,0.004634638,0,0.005501767
462.0294,583.0023,695.9115,1278.914,29.80634,0.02182813,0.03507217,0,0.06128396,-0.01632812,-0.002722536,0,0.01799642,-0.02285937,-0.01984276,0,0.0277016,-0.0006875,-0.000646688,0,0.005501767
462.0303,583.0023,696.5328,1279.535,29.83579,0.03935938,0.05068353,0,0.06128396,-0.01959375,-0.00443377,0,0.01799642,-0.009453125,-0.009422103,0,0.0277016,-0.004296875,-0.00340282,0,0.005501767
462.0312,583.0023,697.1541,1280.156,29.86524,0.06084375,0.0748619,0,0.06128396,-0.01976562,-0.005873429,0,0.01799642,0.01495313,0.01746681,0,0.0277016,-0.006015625,-0.005651554,0,0.005501767
462.0321,581.7631,696.5328,1278.296,29.77706,0.05070313,0.06108291,0,0.06128396,-0.01684375,-0.002025099,0,0.01799642,0.0185625,0.02018957,0,0.0277016,-0.00240625,-0.001700405,0,0.005501767
462.033,581.7631,696.5328,1277.053,29.71817,0.009453125,0.02443003,0,0.06128396,-0.00515625,0.00908032,0,0.01799642,0.02629688,0.02626585,0,0.0277016,0.003953125,0.004244175,0,0.005501767
462.0339,581.7631,695.2902,1277.053,29.71817,-0.0103125,-0.000696558,0,0.06128396,-0.00034375,0.01420737,0,0.01799642,-0.003609375,0.001028153,0,0.0277016,0.002578125,0.003671817,0,0.005501767
462.0348,581.7631,695.2902,1277.053,29.71817,-0.02354687,-0.008265045,0,0.06128396,0.004984375,0.01934392,0,0.01799642,-0.02578125,-0.02857571,0,0.0277016,-0.00275,-0.003105638,0,0.005501767
462.0357,581.7631,695.2902,1277.053,29.71817,-0.02182812,-0.01189444,0,0.06128396,0.009453125,0.02406709,0,0.01799642,-0.01546875,-0.009077957,0,0.0277016,-0.0089375,-0.007090713,0,0.005501767
462.0366,581.7631,694.6689,1276.432,29.68873,-0.02646875,-0.01218263,0,0.06128396,0.004125,0.01825606,0,0.01799642,-0.0199375,-0.02291653,0,0.0277016,-0.006703125,-0.007714671,0,0.005501767
462.0375,582.3827,694.6689,1277.052,29.71809,0.0075625,0.01904059,0,0.06128396,-0.00309375,0.01183688,0,0.01799642,-0.06771875,-0.06290719,0,0.0277016,-0.01117187,-0.008973587,0,0.005501767
462.0384,583.0023,694.6689,1277.671,29.74746,0.03128125,0.04373914,0,0.06128396,-0.01220312,0.001638015,0,0.01799642,-0.04864062,-0.04855308,0,0.0277016,-0.01082812,-0.01174638,0,0.005501767
462.0393,581.7631,694.6689,1276.432,29.68873,0.006875,0.02014068,0,0.06128396,-0.02698437,-0.01191844,0,0.01799642,-0.0309375,-0.02999663,0,0.0277016,-0.01460937,-0.01298634,0,0.005501767
462.0402,582.3827,695.2902,1277.673,29.74753,-0.03403125,-0.02299389,0,0.06128396,-0.03403125,-0.02011424,0,0.01799642,-0.007734375,-0.003818734,0,0.0277016,-0.007046875,-0.006985338,0,0.005501767
462.0411,583.0023,695.9115,1278.914,29.80634,-0.08610937,-0.07203822,0,0.06128396,-0.04485937,-0.03008708,0,0.01799642,0.004125,0.002097305,0,0.0277016,-0.0048125,-0.004403648,0,0.005501767
462.042,583.0023,695.9115,1278.292,29.77689,-0.130625,-0.1197314,0,0.06128396,-0.04778125,-0.0334485,0,0.01799642,-0.0598125,-0.05428911,0,0.0277016,-0.009796875,-0.008501337,0,0.005501767
462.0429,583.0023,695.2902,1277.982,29.76218,-0.1806406,-0.1670149,0,0.06128396,-0.04176562,-0.02740226,0,0.01799642,-0.04210937,-0.04434698,0,0.0277016,-0.008765625,-0.009401697,0,0.005501767
462.0438,583.0023,694.6689,1277.671,29.74746,-0.2205156,-0.2088582,0,0.06128396,-0.03196875,-0.01736005,0,0.01799642,0.00240625,0.00706999,0,0.0277016,-0.01082812,-0.008831604,0,0.005501767
462.0447,583.0023,694.0477,1277.05,29.71801,-0.1969687,-0.1841461,0,0.06128396,-0.01839062,-0.00409422,0,0.01799642,-0.00103125,-0.001931632,0,0.0277016,-0.006875,-0.007802058,0,0.005501767
462.0456,582.3827,693.4264,1275.809,29.6592,-0.1075937,-0.09540926,0,0.06128396,-0.01357812,0.000905348,0,0.01799642,-0.01959375,-0.01611716,0,0.0277016,-0.01014062,-0.008236471,0,0.005501767
462.0465,582.3827,693.4264,1275.809,29.6592,-0.03145312,-0.01863651,0,0.06128396,-0.00171875,0.01281436,0,0.01799642,-0.008421875,-0.008691098,0,0.0277016,-0.006015625,-0.006570181,0,0.005501767
462.0474,581.7631,693.4264,1275.189,29.62983,0.02835938,0.04003526,0,0.06128396,0.02045313,0.03471719,0,0.01799642,0.01151563,0.01499124,0,0.0277016,0.000859375,0.002257243,0,0.005501767
462.0483,581.7631,693.4264,1275.189,29.62983,0.05671875,0.07050545,0,0.06128396,0.02921875,0.04386508,0,0.01799642,0.01907813,0.01840094,0,0.0277016,0.00584375,0.005781402,0,0.005501767
462.0492,581.1435,692.1838,1273.327,29.54158,0.0158125,0.02634614,0,0.06128396,0.03626563,0.05057314,0,0.01799642,-0.01254687,-0.008630388,0,0.0277016,0.001203125,0.002242199,0,0.005501767
462.0501,581.7631,691.5625,1273.326,29.5415,-0.06153125,-0.0467715,0,0.06128396,0.03575,0.05024548,0,0.01799642,-0.0061875,-0.006982373,0,0.0277016,0.00378125,0.003890932,0,0.005501767
462.051,581.7631,691.5625,1273.326,29.5415,-0.09401562,-0.08400047,0,0.06128396,0.01701563,0.0314859,0,0.01799642,-0.0006875,0.002816183,0,0.0277016,0.00653125,0.007566096,0,0.005501767
462.0519,581.7631,691.5625,1273.637,29.55626,-0.08421875,-0.06964424,0,0.06128396,-0.00171875,0.01270153,0,0.01799642,-0.001546875,-0.001405081,0,0.0277016,0.0061875,0.006217021,0,0.005501767
462.0528,581.1435,692.8051,1273.948,29.57102,-0.03265625,-0.02173639,0,0.06128396,-0.01667187,-0.002284593,0,0.01799642,-0.007734375,-0.005498965,0,0.0277016,0.00171875,0.002805315,0,0.005501767
462.0537,581.1435,692.8051,1273.948,29.57102,-0.00584375,0.007273096,0,0.06128396,-0.0295625,-0.01493407,0,0.01799642,0.0006875,0.00221312,0,0.0277016,-0.00103125,-0.000920682,0,0.005501767
462.0546,582.3827,692.1838,1274.566,29.6003,0.009625,0.02226516,0,0.06128396,-0.03729687,-0.02315511,0,0.01799642,0.034375,0.0352658,0,0.0277016,-0.001890625,-0.001074248,0,0.005501767
462.0555,581.7631,692.1838,1273.947,29.57094,0.02354688,0.03508509,0,0.06128396,-0.04142187,-0.02665582,0,0.01799642,0.017875,0.0206564,0,0.0277016,-0.001890625,-0.001341138,0,0.005501767
462.0564,580.5239,692.8051,1273.329,29.54166,0.01495313,0.02871963,0,0.06128396,-0.03592187,-0.02169607,0,0.01799642,-0.04004687,-0.04036579,0,0.0277016,-0.00859375,-0.008295334,0,0.005501767
462.0573,580.5239,691.5625,1272.086,29.48277,0.02303125,0.0341047,0,0.06128396,-0.03265625,-0.01824419,0,0.01799642,-0.04434375,-0.04037097,0,0.0277016,-0.01082812,-0.009824583,0,0.005501767
462.0582,580.5239,690.9412,1271.465,29.45332,0.03729688,0.05087159,0,0.06128396,-0.04107812,-0.02627824,0,0.01799642,-0.007046875,-0.008471666,0,0.0277016,-0.009109375,-0.009064741,0,0.005501767
462.0591,579.9043,691.5625,1271.467,29.4534,0.03385938,0.04559765,0,0.06128396,-0.04778125,-0.03402792,0,0.01799642,-0.001375,0.003436174,0,0.0277016,-0.01220312,-0.01123157,0,0.005501767
462.06,579.9043,691.5625,1270.845,29.42395,0.0061875,0.01892317,0,0.06128396,-0.04125,-0.02588631,0,0.01799642,0.0116875,0.009958523,0,0.0277016,-0.007390625,-0.007026946,0,0.005501767
462.0609,579.9043,690.9412,1270.845,29.42392,-0.01598437,-0.003565316,0,0.06128396,-0.02801562,-0.01457464,0,0.01799642,-0.008765625,-0.004379171,0,0.0277016,-0.006359375,-0.005906066,0,0.005501767
462.0618,580.5239,690.3199,1270.844,29.42388,-0.0075625,0.004870525,0,0.06128396,-0.02698437,-0.01162797,0,0.01799642,-0.02921875,-0.02978781,0,0.0277016,-0.006359375,-0.005423756,0,0.005501767
462.0627,580.5239,690.3199,1270.844,29.42388,0.0020625,0.01431695,0,0.06128396,-0.0171875,-0.003433311,0,0.01799642,-0.0378125,-0.03508433,0,0.0277016,-0.00240625,-0.002415069,0,0.005501767
462.0636,580.5239,690.9412,1271.465,29.45332,-0.01684375,-0.00383313,0,0.06128396,-0.01254687,0.002314225,0,0.01799642,-0.0226875,-0.0215977,0,0.0277016,-0.0061875,-0.005014353,0,0.005501767
462.0645,579.2847,691.5625,1270.847,29.42404,-0.01701562,-0.005536341,0,0.06128396,-0.01701562,-0.002738333,0,0.01799642,-0.006875,-0.005268661,0,0.0277016,-0.00240625,-0.002390593,0,0.005501767
462.0654,579.9043,691.5625,1271.467,29.4534,0.01220313,0.02595546,0,0.06128396,-0.0171875,-0.002720338,0,0.01799642,0.01770313,0.01898074,0,0.0277016,6.25278E-16,0.000934124,0,0.005501767
462.0663,579.2847,690.3199,1269.605,29.36515,0.04142188,0.05244151,0,0.06128396,-0.007390625,0.007054928,0,0.01799642,0.02389063,0.02635468,0,0.0277016,0.000515625,0.000877149,0,0.005501767
462.0672,578.0455,689.6986,1267.744,29.27697,0.05671875,0.07055092,0,0.06128396,0.00446875,0.01900403,0,0.01799642,-0.0020625,-0.002386943,0,0.0277016,0.004125,0.004735391,0,0.005501767
462.0681,576.8063,690.3199,1267.126,29.24769,0.0735625,0.08492295,0,0.06128396,0.01048438,0.02469633,0,0.01799642,0.00378125,0.007976125,0,0.0277016,0.00275,0.00331697,0,0.005501767
462.069,576.8063,690.3199,1267.125,29.24761,0.0653125,0.07846478,0,0.06128396,0.01117188,0.02599014,0,0.01799642,0.03729688,0.03582812,0,0.0277016,-0.00103125,-0.000466155,0,0.005501767
462.0699,577.4259,689.6986,1266.503,29.21817,0.05534375,0.06754887,0,0.06128396,0.01014063,0.02413954,0,0.01799642,0.01357813,0.01778628,0,0.0277016,-0.00309375,-0.002625587,0,0.005501767
462.0708,577.4259,688.4561,1265.882,29.18872,0.04760938,0.05991122,0,0.06119806,0.00171875,0.01658441,0,0.01802626,0.01426563,0.01413096,0,0.02773997,-0.00515625,-0.004413645,0,0.005508073
462.0717,576.8063,688.4561,1265.262,29.15936,0.0213125,0.03420929,0,0.06111076,0.000859375,0.0150028,0,0.01807103,0.02114063,0.02289109,0,0.0277783,-0.002578125,-0.002298814,0,0.005514623
462.0726,576.1867,688.4561,1264.643,29.12999,-0.0103125,0.001579106,0,0.06102493,0.00171875,0.01626527,0,0.01810088,0.004125,0.006979717,0,0.02781569,-0.006015625,-0.005131559,0,0.005522396
462.0735,576.1867,688.4561,1264.643,29.12999,-0.02285937,-0.009927049,0,0.06094208,-0.002921875,0.01165228,0,0.01813072,-0.01959375,-0.02059791,0,0.02785352,-0.0055,-0.00528573,0,0.005530724
462.0744,576.1867,688.4561,1264.643,29.12999,-0.0055,0.00672264,0,0.06086215,-0.001375,0.01271327,0,0.01816056,-0.03970312,-0.03505381,0,0.02789091,0.002921875,0.00379037,0,0.005538651
462.0753,576.1867,687.8348,1264.021,29.10055,0.008765625,0.02102398,0,0.06078554,0.000859375,0.01585196,0,0.01819041,-0.01701562,-0.01845231,0,0.02792533,0.0020625,0.002364209,0,0.005546572
462.0762,575.5671,687.8348,1263.402,29.07118,-0.01220312,0.000917491,0,0.06071307,-0.002234375,0.01153747,0,0.01823518,-0.006703125,-0.003026189,0,0.02796103,-0.004125,-0.003398108,0,0.005554886
462.0771,575.5671,688.4561,1264.023,29.10063,-0.03729687,-0.02602465,0,0.06064554,-0.007734375,0.007440866,0,0.01827994,0.01323438,0.01385268,0,0.02799748,-0.001375,-0.000887385,0,0.005563879
462.078,575.5671,688.4561,1264.645,29.13007,-0.0419375,-0.02793276,0,0.06058117,-0.009796875,0.003946927,0,0.01830979,0.0185625,0.01969401,0,0.0280337,0.00034375,0.000852697,0,0.00557354
462.0789,575.5671,689.0774,1264.335,29.11539,-0.02870312,-0.01807472,0,0.06051962,-0.01753125,-0.002494128,0,0.01835455,-0.033,-0.02998116,0,0.02806921,0.001890625,0.002608805,0,0.00558363
462.0798,574.9475,689.0774,1264.025,29.10071,-0.01684375,-0.002517452,0,0.0604616,-0.02165625,-0.007616509,0,0.01839932,-0.06204687,-0.06265393,0,0.02810339,0.001890625,0.002188037,0,0.005593757
462.0807,573.7083,689.0774,1262.786,29.04197,0.004296875,0.01491678,0,0.06040686,-0.02389062,-0.009294087,0,0.01845901,-0.03403125,-0.03022381,0,0.02813109,-0.00034375,0.000535258,0,0.005604037
462.0816,573.7083,688.4561,1262.164,29.01252,0.0020625,0.01619048,0,0.06035489,-0.02320312,-0.008626292,0,0.01850378,-0.001546875,-0.002004371,0,0.02815813,0.006703125,0.006917009,0,0.005615267
462.0825,573.0887,687.8348,1260.924,28.95373,-0.008078125,0.002810511,0,0.06030566,-0.02217187,-0.008138086,0,0.01854854,-0.002234375,0.000757001,0,0.02818572,0.007734375,0.008614349,0,0.005626212
462.0834,573.0887,687.8348,1260.924,28.95373,-0.0309375,-0.01703531,0,0.0602598,-0.02423437,-0.009159408,0,0.01857839,0.0089375,0.009560416,0,0.02821367,0.000171875,0.000449268,0,0.005636104
462.0843,572.4691,687.2135,1259.683,28.89491,-0.04176562,-0.03073197,0,0.06021705,-0.02371875,-0.01002705,0,0.01863808,0.01185938,0.01394614,0,0.02824209,-0.0061875,-0.005400387,0,0.005646006
462.0852,571.8495,687.2135,1259.063,28.86554,-0.04778125,-0.03403279,0,0.06017621,-0.02440625,-0.009218222,0,0.01868284,0.01546875,0.01649097,0,0.0282704,-0.008765625,-0.008411161,0,0.005655704
462.0861,572.4691,687.2135,1259.683,28.89491,-0.05070312,-0.03937216,0,0.06013697,-0.0240625,-0.01023606,0,0.01872761,0.04176563,0.04411342,0,0.02830101,-0.008765625,-0.008020458,0,0.005664434
462.087,572.4691,687.2135,1259.683,28.89491,-0.04760937,-0.03445453,0,0.06009892,-0.02698437,-0.01214412,0,0.01877238,0.06221875,0.06243092,0,0.0283313,-0.003265625,-0.002899796,0,0.005672263
462.0879,572.4691,687.2135,1259.993,28.90963,-0.044,-0.03173464,0,0.0600629,-0.02182812,-0.007530451,0,0.01881714,0.0385,0.04192079,0,0.0283514,-0.001890625,-0.001157387,0,0.005679975
462.0888,572.4691,687.8348,1260.304,28.92436,-0.05585937,-0.04386206,0,0.06002936,-0.01959375,-0.005227454,0,0.01886191,0.03042188,0.02969862,0,0.02836738,-0.00721875,-0.006793127,0,0.005687672
462.0897,573.0887,688.4561,1261.545,28.98317,-0.0625625,-0.04919994,0,0.05999704,-0.02217187,-0.007509078,0,0.0189216,0.03575,0.03957564,0,0.028382,-0.01082812,-0.0102378,0,0.005694772
462.0906,573.0887,688.4561,1261.545,28.98317,-0.08095312,-0.06964792,0,0.05996551,-0.01426562,-7.92E-05,0,0.01896637,0.01409375,0.01369146,0,0.02839295,-0.0075625,-0.006910193,0,0.005700424
462.0915,572.4691,688.4561,1260.925,28.9538,-0.1093125,-0.09595854,0,0.05993121,-0.007390625,0.007250428,0,0.01901113,-0.02646875,-0.02365162,0,0.02840528,-0.0048125,-0.004499257,0,0.005705486
462.0924,571.2299,687.8348,1259.065,28.86563,-0.1450625,-0.1329753,0,0.05988784,-0.01220312,0.002169347,0,0.0190559,-0.02440625,-0.02344196,0,0.02841716,-0.00240625,-0.001483,0,0.0057106
462.0933,571.2299,687.8348,1259.065,28.86563,-0.2141562,-0.2022019,0,0.05982409,-0.01753125,-0.003158085,0,0.01911559,-0.03970312,-0.03817986,0,0.02842837,0.0020625,0.002177117,0,0.005715788
462.0942,571.2299,687.8348,1259.065,28.86563,-0.2045312,-0.1908915,0,0.05971021,-0.0171875,-0.002561473,0,0.01916036,-0.0433125,-0.04155727,0,0.0284378,0.000515625,0.001528549,0,0.005721081
462.0951,571.2299,687.2135,1258.443,28.83618,-0.1008906,-0.09012148,0,0.05955508,-0.02096875,-0.006767003,0,0.01920512,-0.0103125,-0.008865112,0,0.02844292,0.002234375,0.002370529,0,0.005726456
462.096,571.2299,687.2135,1258.443,28.83618,-0.02423437,-0.01018115,0,0.05940234,-0.02921875,-0.0145425,0,0.01926481,-0.000515625,0.000722998,0,0.02844833,0.00240625,0.003322504,0,0.005732235
462.0969,571.2299,687.2135,1258.443,28.83618,0.02114063,0.03252429,0,0.05926557,-0.0254375,-0.01118319,0,0.0193245,0.02457813,0.02673364,0,0.02845914,6.25278E-16,0.000249241,0,0.005738164
462.0978,571.2299,687.2135,1258.443,28.83618,0.0144375,0.02706869,0,0.05913663,-0.01925,-0.004688023,0,0.01938419,0.04073438,0.04167309,0,0.02847439,-0.004984375,-0.004146986,0,0.005744205
462.0987,571.2299,687.2135,1258.443,28.83618,-0.00103125,0.01214731,0,0.0590072,-0.02114062,-0.006761889,0,0.01942896,0.00446875,0.006036479,0,0.0284854,-0.007734375,-0.007469161,0,0.00575052
462.0996,571.8495,687.2135,1259.063,28.86554,0.0006875,0.01177756,0,0.05888592,-0.02010937,-0.00563694,0,0.01948864,-0.00653125,-0.003963774,0,0.02849772,-0.004984375,-0.004113836,0,0.005756585
462.1005,571.8495,687.2135,1259.063,28.86554,-0.02096875,-0.00701653,0,0.05878198,-0.0130625,0.001353539,0,0.01954833,-0.002578125,-0.003417931,0,0.02851054,-0.00034375,-0.000120937,0,0.005762985
462.1014,571.2299,687.8348,1259.065,28.86563,-0.00653125,0.004820363,0,0.05869599,-0.009453125,0.005034148,0,0.01962294,-0.00721875,-0.002162143,0,0.02852475,-0.003609375,-0.002734922,0,0.005769954
462.1023,570.6103,687.2135,1257.824,28.80682,0.01495313,0.02767493,0,0.05862055,-0.006875,0.007497429,0,0.01968263,0.0048125,0.002298518,0,0.02854391,-0.003609375,-0.003317938,0,0.005776872
462.1032,571.2299,687.2135,1258.443,28.83618,0.001546875,0.01468825,0,0.05854793,-0.000171875,0.01437721,0,0.01974232,-0.02509375,-0.01992527,0,0.02856488,-0.001375,-0.000644918,0,0.005783747
462.1041,570.6103,687.8348,1258.445,28.83626,0.006875,0.0177964,0,0.0584759,0.004296875,0.01860231,0,0.01981693,-0.03179687,-0.03251979,0,0.028586,-0.00034375,0.000137894,0,0.005790818
462.105,570.6103,687.8348,1257.825,28.80689,0.02217188,0.03660228,0,0.0584034,-0.003609375,0.0110229,0,0.01990647,-0.02457812,-0.02288634,0,0.02860655,-0.000859375,-0.000314593,0,0.005797955
462.1059,569.9907,687.8348,1257.515,28.79217,0.03403125,0.04450973,0,0.05832947,-0.009453125,0.004750588,0,0.02001092,0.000171875,0.003826868,0,0.02862876,-0.000859375,-0.000244898,0,0.005805409
462.1068,569.9907,687.2135,1257.204,28.77745,0.04382813,0.05785023,0,0.05825516,-0.0048125,0.009933209,0,0.0201303,0.01220313,0.009713561,0,0.02865388,-0.00034375,0.000148894,0,0.005813548
462.1077,570.6103,686.5922,1257.203,28.77738,0.06342188,0.07493086,0,0.05818368,-0.001375,0.0127336,0,0.02024968,-0.02801562,-0.02142273,0,0.02868221,-0.000515625,7.68168E-05,0,0.005821949
462.1086,571.2299,686.5922,1257.822,28.80674,0.06995313,0.08272959,0,0.05811591,-0.00584375,0.00893398,0,0.02038398,-0.031625,-0.03512287,0,0.02871222,6.25278E-16,0.000559837,0,0.005830494
462.1095,571.2299,686.5922,1257.822,28.80674,0.07098438,0.08354832,0,0.05805133,-0.008421875,0.005771182,0,0.02050336,-0.05207812,-0.04654958,0,0.02873886,-0.0034375,-0.00292268,0,0.005839064
462.1104,571.2299,687.2135,1258.443,28.83618,0.05740625,0.06960496,0,0.05798522,-0.01065625,0.003886357,0,0.02063766,-0.04434375,-0.04517631,0,0.02876002,-0.0089375,-0.008317353,0,0.005847899
462.1113,571.2299,685.9709,1257.201,28.77729,0.02664063,0.03919563,0,0.05791287,-0.01684375,-0.00227666,0,0.02075704,-0.01426562,-0.01216744,0,0.02877614,-0.007390625,-0.006922594,0,0.005856892
462.1122,571.8495,686.5922,1258.442,28.8361,0.00309375,0.01579005,0,0.05783866,-0.02767187,-0.01358701,0,0.02087641,6.25E-16,0.002425964,0,0.0287928,-0.007390625,-0.00671364,0,0.005865366
462.1131,571.2299,687.2135,1258.443,28.83618,-0.01340625,-0.001641099,0,0.05776437,-0.033,-0.01799884,0,0.02101071,0.006875,0.006654814,0,0.02881111,-0.0103125,-0.009944028,0,0.005873227
462.114,571.2299,687.2135,1259.063,28.86554,-0.0213125,-0.00775527,0,0.05769194,-0.03025,-0.01646226,0,0.02113009,0.01546875,0.01892677,0,0.0288308,-0.01082812,-0.00998359,0,0.00587991
462.1149,571.8495,687.2135,1259.064,28.86559,0.0075625,0.01857253,0,0.05762391,-0.0295625,-0.01449735,0,0.02126439,0.02303125,0.02297974,0,0.02885275,-0.01117187,-0.01103896,0,0.005885535
462.1158,571.2299,687.8348,1259.065,28.86563,0.03575,0.0498951,0,0.05756001,-0.01821875,-0.004214797,0,0.02138377,0.0158125,0.01837776,0,0.02887437,-0.012375,-0.01126118,0,0.005889882
462.1167,570.6103,687.2135,1257.824,28.80682,0.05207813,0.06271393,0,0.05749917,-0.004984375,0.009616572,0,0.02150315,0.01804688,0.01905373,0,0.02890296,-0.008765625,-0.008880935,0,0.005892641
462.1176,570.6103,687.8348,1258.445,28.83626,0.04675,0.06108936,0,0.05744097,0.0055,0.02013524,0,0.02163745,0.0199375,0.02175563,0,0.02894204,-0.006875,-0.005591777,0,0.005895032
462.1185,569.9907,689.0774,1259.068,28.86579,0.02784375,0.03844598,0,0.05738659,0.01392188,0.027861,0,0.02175683,0.01959375,0.0208102,0,0.02898907,-0.001375,-0.001542295,0,0.005897488
462.1194,570.6103,688.4561,1259.066,28.86571,-0.01546875,-0.001350852,0,0.05733908,0.01375,0.02894682,0,0.0218762,0.023375,0.02545012,0,0.0290397,-0.00515625,-0.003936827,0,0.005901018
462.1203,571.2299,688.4561,1259.686,28.89508,-0.06273437,-0.05165071,0,0.05729596,0.0116875,0.02527321,0,0.02199558,0.02096875,0.02172156,0,0.02909156,-0.00653125,-0.006551841,0,0.005905447
462.1212,570.6103,687.8348,1258.445,28.83626,-0.121,-0.1077216,0,0.05725036,0.00928125,0.02456178,0,0.02211496,0.02629688,0.02872731,0,0.0291457,-0.001546875,-0.000504054,0,0.005909675
462.1221,570.6103,688.4561,1259.066,28.86571,-0.1505625,-0.1383555,0,0.0571896,0.01478125,0.02854884,0,0.02223434,0.04589063,0.04659138,0,0.02919758,0.00275,0.002890517,0,0.005914557
462.123,570.6103,688.4561,1259.066,28.86571,-0.1192812,-0.1072916,0,0.05710239,0.01409375,0.02896848,0,0.02233879,0.02303125,0.02523668,0,0.02924359,-0.001890625,-0.000965933,0,0.005920346
462.1239,570.6103,688.4561,1259.997,28.9098,-0.0570625,-0.04363556,0,0.05700037,0.0103125,0.02462613,0,0.02245817,0.003953125,0.004948304,0,0.02928829,-0.00275,-0.002527966,0,0.005926997
462.1248,571.8495,689.0774,1260.927,28.95388,-0.02629687,-0.01515888,0,0.05689687,0.008765625,0.02304267,0,0.02256263,0.009453125,0.01159547,0,0.02933294,6.25278E-16,0.00084292,0,0.005933637
462.1257,572.4691,689.6986,1262.168,29.01269,-0.02921875,-0.01549287,0,0.05679708,0.00275,0.0176103,0,0.02266708,0.0089375,0.009503339,0,0.02937726,6.25278E-16,0.000350891,0,0.005940373
462.1266,572.4691,689.6986,1262.168,29.01269,-0.0419375,-0.03047474,0,0.05670621,-0.009625,0.004239491,0,0.02277154,0.001890625,0.005031505,0,0.02942162,-0.0048125,-0.004177983,0,0.005947283
462.1275,573.0887,690.3199,1263.409,29.0715,-0.07803125,-0.06513081,0,0.0566247,-0.02096875,-0.0059084,0,0.02287599,0.000515625,-0.000351871,0,0.02946632,-0.0061875,-0.005551257,0,0.005954431
462.1284,573.7083,690.3199,1264.028,29.10087,-0.07803125,-0.06556154,0,0.0565425,-0.02526562,-0.01135657,0,0.02298045,-0.0075625,-0.002899521,0,0.02951123,-0.007734375,-0.007433867,0,0.005961853
462.1293,573.0887,690.9412,1264.03,29.10095,-0.05104687,-0.03896074,0,0.05645448,-0.03025,-0.01548072,0,0.02308491,-0.00790625,-0.009981658,0,0.02955875,-0.00653125,-0.005573538,0,0.005969443
462.1302,572.4691,691.5625,1264.032,29.10102,-0.03678125,-0.02399013,0,0.05636481,-0.033,-0.01860939,0,0.02317444,-0.03196875,-0.02671158,0,0.02960724,0.00378125,0.003841743,0,0.005977369
462.1311,573.0887,690.9412,1264.03,29.10095,-0.01873437,-0.006330122,0,0.056276,-0.03626562,-0.02207259,0,0.0232789,-0.017875,-0.01983649,0,0.0296545,0.0061875,0.007254669,0,0.005985342
462.132,573.0887,690.9412,1263.409,29.0715,-0.01082812,0.001128971,0,0.05619028,-0.03575,-0.02081522,0,0.02336843,-0.00309375,0.001481519,0,0.02970191,0.0055,0.00561068,0,0.005992684
462.1329,573.0887,690.3199,1263.099,29.05682,-0.00446875,0.008963411,0,0.05610968,-0.03317187,-0.01936228,0,0.02347288,0.02234375,0.02134445,0,0.02975078,0.006359375,0.007232744,0,0.005999813
462.1338,572.4691,690.3199,1262.789,29.04214,-0.009109375,0.002068653,0,0.0560333,-0.03764062,-0.0225683,0,0.02356242,0.0213125,0.02494958,0,0.02979921,0.004984375,0.005388502,0,0.006006264
462.1347,572.4691,690.9412,1263.41,29.07158,-0.06325,-0.04966524,0,0.05596072,-0.03935937,-0.0254138,0,0.02365195,0.02595313,0.02572698,0,0.02984699,0.00034375,0.000891827,0,0.006012486
462.1356,573.0887,690.9412,1264.03,29.10095,-0.0873125,-0.07548444,0,0.05588902,-0.04915625,-0.03443763,0,0.02374148,0.06239063,0.06538677,0,0.02989323,0.000171875,0.00086412,0,0.006018913
462.1365,574.3279,690.9412,1265.269,29.15968,-0.07596875,-0.06377392,0,0.05581265,-0.0605,-0.04610173,0,0.02383102,0.048125,0.04864605,0,0.02993082,-0.00103125,-0.000676781,0,0.006025459
462.1374,574.3279,690.9412,1265.269,29.15968,-0.08095312,-0.06730908,0,0.05573256,-0.06307812,-0.04876445,0,0.02392055,-0.03609375,-0.03424537,0,0.02996474,-0.005671875,-0.00491404,0,0.006032622
462.1383,574.3279,691.5625,1265.89,29.18912,-0.077,-0.06661848,0,0.05564708,-0.05946875,-0.04484928,0,0.02399516,-0.04245312,-0.04027877,0,0.02999645,-0.00378125,-0.003364454,0,0.006040411
462.1392,575.5671,692.1838,1267.751,29.2773,-0.05878125,-0.04375115,0,0.05555629,-0.0529375,-0.03858443,0,0.02405485,-0.01220312,-0.01242693,0,0.03003409,-0.00103125,-0.000437035,0,0.006048753
462.1401,576.1867,691.5625,1267.749,29.27722,-0.033,-0.02331331,0,0.05546658,-0.0446875,-0.03036024,0,0.02411454,-0.03059375,-0.0263768,0,0.03007678,-0.004125,-0.003501747,0,0.00605805
462.141,576.1867,691.5625,1266.51,29.21848,-0.02028125,-0.005286917,0,0.05538075,-0.03265625,-0.01784707,0,0.02417423,-0.03351562,-0.0351146,0,0.03011886,-0.006015625,-0.00560547,0,0.006068391
462.1419,574.9475,691.5625,1267.131,29.24793,0.02492188,0.03525209,0,0.05529901,-0.02303125,-0.00917734,0,0.02423392,-0.031625,-0.02733907,0,0.03015765,-0.0020625,-0.001342373,0,0.006078995
462.1428,574.9475,692.8051,1267.753,29.27737,0.05448438,0.06853092,0,0.05522349,-0.02114062,-0.005991624,0,0.02429361,-0.01942187,-0.01940079,0,0.03019498,-0.001546875,-0.001104498,0,0.006090223
462.1437,574.3279,692.1838,1266.512,29.21856,0.05139063,0.06273064,0,0.05515593,-0.007390625,0.006382229,0,0.0243533,-0.01203125,-0.01094638,0,0.03023532,-0.007734375,-0.007173565,0,0.006101985
462.1446,574.9475,690.9412,1265.889,29.18904,0.04073438,0.05396883,0,0.05510467,0.007390625,0.02231795,0,0.02441299,-0.01632812,-0.01212513,0,0.03027808,-0.006359375,-0.005676941,0,0.006113631
462.1455,575.5671,690.9412,1266.508,29.2184,0.04709375,0.05897503,0,0.05508107,0.01632813,0.03060215,0,0.02447267,-0.02767187,-0.03077112,0,0.03032107,-0.0006875,-0.000369041,0,0.006125399
462.1464,575.5671,690.9412,1266.508,29.2184,0.0488125,0.06179226,0,0.05507697,0.0213125,0.03556686,0,0.02453236,-0.044,-0.03667003,0,0.03036247,-0.004640625,-0.003809248,0,0.006137667
462.1473,574.9475,690.9412,1265.889,29.18904,0.04709375,0.05901855,0,0.05507414,0.02285938,0.03783994,0,0.02459205,-0.03385937,-0.03824599,0,0.03040137,-0.009625,-0.009282835,0,0.006150181
462.1482,574.9475,691.5625,1266.51,29.21848,0.05053125,0.06354099,0,0.05506812,0.02285938,0.03651499,0,0.02463682,-0.02217187,-0.0156127,0,0.03043707,-0.00446875,-0.003861508,0,0.006162043
462.1491,576.1867,691.5625,1267.749,29.27722,0.070125,0.0820208,0,0.0550642,0.020625,0.03598855,0,0.02469651,0.061875,0.05988976,0,0.03047359,0.006875,0.007602742,0,0.006173972
462.15,576.1867,691.5625,1268.37,29.30666,0.05654688,0.06948811,0,0.05506042,0.02234375,0.03588458,0,0.02474128,0.04245313,0.04596996,0,0.03050172,0.0103125,0.01048252,0,0.006185352
462.1509,576.1867,692.1838,1268.37,29.30666,0.000515625,0.01263085,0,0.05505282,0.02096875,0.03618956,0,0.02478604,-0.04176562,-0.04121055,0,0.03052657,0.007390625,0.008472714,0,0.00619533
462.1518,576.1867,692.1838,1268.37,29.30666,-0.031625,-0.01909358,0,0.05504846,0.02354688,0.03743737,0,0.02483081,-0.05053125,-0.04813177,0,0.03055785,0.00584375,0.005879187,0,0.006204559
462.1527,576.1867,692.1838,1268.37,29.30666,-0.02526562,-0.01260028,0,0.05504919,0.01529688,0.03004439,0,0.02487558,-0.03317187,-0.03333078,0,0.0305878,6.25278E-16,0.00091,0,0.006213996
462.1536,576.1867,692.8051,1268.992,29.3361,-0.02354687,-0.01165901,0,0.05505339,0.005328125,0.01972673,0,0.02492034,-0.0254375,-0.02081579,0,0.03061536,-0.001203125,-0.000699273,0,0.006223835
462.1545,576.1867,692.8051,1268.992,29.3361,-0.028875,-0.01561206,0,0.05505921,0.0034375,0.01770607,0,0.02496511,0.02182813,0.01883598,0,0.030644,-0.00171875,-0.001485237,0,0.006233812
462.1554,576.1867,692.1838,1268.37,29.30666,-0.02509375,-0.01361713,0,0.05506795,-0.004125,0.01067013,0,0.02500988,0.01357813,0.02052354,0,0.03067735,-0.004296875,-0.003072973,0,0.006243856
462.1563,575.5671,691.5625,1267.13,29.24785,-0.01839062,-0.005032918,0,0.05507987,-0.01323437,0.000737021,0,0.02505464,-0.0495,-0.0533609,0,0.03071195,-0.0075625,-0.007916097,0,0.006253794
462.1572,576.1867,691.5625,1267.749,29.27722,-0.015125,-0.003362608,0,0.05509406,-0.01495312,3.84E-05,0,0.02509941,-0.1167031,-0.1107611,0,0.03074066,-0.01770312,-0.01616474,0,0.006262972
462.1581,576.1867,691.5625,1267.749,29.27722,-0.031625,-0.01887139,0,0.05510925,-0.01890625,-0.005046501,0,0.02514418,-0.06273437,-0.06406059,0,0.03074008,-0.01632812,-0.01667273,0,0.006269277
462.159,576.1867,691.5625,1266.508,29.2184,-0.033,-0.02045106,0,0.05512499,-0.03317187,-0.01813007,0,0.02520386,-0.02096875,-0.01824836,0,0.030731,-0.01564062,-0.01439012,0,0.00627266
462.1599,575.5671,690.9412,1267.129,29.24781,-0.01890625,-0.006915305,0,0.05514208,-0.0419375,-0.02808889,0,0.02524863,-0.000171875,0.001338195,0,0.03072134,-0.01220312,-0.0121067,0,0.006273942
462.1608,576.1867,691.5625,1267.749,29.27722,-0.01323437,-0.000109046,0,0.0551606,-0.04967187,-0.03464311,0,0.0252934,0.03935938,0.04058085,0,0.03071212,-0.004125,-0.003309713,0,0.006274263
462.1617,576.8063,691.5625,1268.369,29.30658,-0.0103125,0.001360728,0,0.05517937,-0.04932812,-0.03545161,0,0.02533817,0.05379688,0.05514592,0,0.03069954,0.005671875,0.006079461,0,0.00627498
462.1626,578.0455,692.1838,1270.229,29.39475,-0.01546875,-0.002200174,0,0.05519819,-0.04451562,-0.02953243,0,0.02536801,0.075625,0.07840825,0,0.03068032,0.006875,0.00756174,0,0.006275931
462.1635,577.4259,692.1838,1269.61,29.36538,-0.009453125,0.002041608,0,0.05521722,-0.03832812,-0.02438361,0,0.02541278,0.06101563,0.06022766,0,0.03064989,-0.0006875,-0.000299957,0,0.006277022
462.1644,578.0455,692.1838,1270.229,29.39475,-0.01203125,0.001656328,0,0.05523687,-0.03660937,-0.02173783,0,0.02544262,-0.011,-0.006571466,0,0.03061304,-0.00653125,-0.005798273,0,0.00627858
462.1653,578.0455,692.1838,1270.229,29.39475,-0.02698437,-0.01631351,0,0.05525743,-0.0336875,-0.01959168,0,0.02548739,-0.0034375,-0.004518102,0,0.03057716,-0.00653125,-0.006104978,0,0.006280065
462.1662,577.4259,691.5625,1268.988,29.33594,-0.06153125,-0.04667526,0,0.05527813,-0.0309375,-0.01627754,0,0.02551723,6.25E-16,0.002864368,0,0.03054149,-0.0061875,-0.005703359,0,0.006281222
462.1671,577.4259,691.5625,1268.988,29.33594,-0.1203125,-0.1109694,0,0.05529621,-0.02646875,-0.01213487,0,0.02554708,-0.01392187,-0.0117888,0,0.03050631,-0.00171875,-0.00083481,0,0.006282282
462.168,577.4259,691.5625,1268.369,29.30658,-0.1851094,-0.1691725,0,0.05529982,-0.02096875,-0.006568977,0,0.02557692,-0.009453125,-0.01079993,0,0.03047178,0.000171875,4.18517E-05,0,0.006283922
462.1689,576.8063,691.5625,1268.058,29.29185,-0.1751406,-0.1662977,0,0.0552676,-0.008765625,0.005807471,0,0.02560677,-0.03334375,-0.02700235,0,0.03043692,-0.00721875,-0.005713863,0,0.006285834
462.1698,576.8063,690.9412,1267.748,29.27714,-0.121,-0.1053982,0,0.05520083,0.0034375,0.01766472,0,0.02565153,-0.01701562,-0.02160813,0,0.0304004,-0.009109375,-0.009693618,0,0.006287446
462.1707,576.8063,690.9412,1267.748,29.27714,-0.02560937,-0.01554847,0,0.05512246,0.007734375,0.02241625,0,0.02568138,-0.01065625,-0.002660546,0,0.03036452,-0.011,-0.009314182,0,0.006288668
462.1716,576.8063,690.3199,1267.126,29.24769,0.00928125,0.02306486,0,0.05504695,0.01323438,0.02746822,0,0.02572614,-0.008078125,-0.01243928,0,0.03032928,-0.008078125,-0.008474216,0,0.006289749
462.1725,576.8063,690.3199,1267.126,29.24769,-0.004296875,0.007803306,0,0.05497319,0.01323438,0.02786477,0,0.02575599,-0.01976562,-0.01357887,0,0.03029388,-0.01460937,-0.01339673,0,0.006290212
462.1734,578.0455,689.6986,1267.744,29.27697,-0.00584375,0.006124016,0,0.05490031,0.00790625,0.02227045,0,0.02578583,-0.01220312,-0.01361484,0,0.03025979,-0.0116875,-0.01137881,0,0.006288724
462.1743,578.6651,689.6986,1268.364,29.30634,-0.00240625,0.01093359,0,0.05482794,0.009625,0.02415604,0,0.02581568,-0.02114062,-0.01821565,0,0.03022562,-0.00034375,0.000146674,0,0.00628595
462.1752,578.6651,690.3199,1268.985,29.33579,0.01323438,0.02465939,0,0.05475708,0.01890625,0.03337236,0,0.02584552,0.01117188,0.01286607,0,0.03019111,0.004296875,0.00527141,0,0.006283353
462.1761,579.2847,690.9412,1270.226,29.3946,0.0378125,0.05109125,0,0.05468737,0.02664063,0.04114035,0,0.02587537,0.03626563,0.03679267,0,0.03015774,0.008078125,0.008111478,0,0.006280495
462.177,579.2847,690.9412,1270.226,29.3946,0.04245313,0.05432183,0,0.05461754,0.02715625,0.04163423,0,0.02589029,0.01478125,0.01806551,0,0.03012233,0.009625,0.0108599,0,0.006276882
462.1779,579.2847,690.9412,1270.227,29.39463,0.02646875,0.03924155,0,0.05454734,0.01976563,0.03424821,0,0.02592013,-0.002921875,-0.003255349,0,0.03008766,0.009796875,0.009747773,0,0.00627184
462.1788,578.6651,691.5625,1270.228,29.39467,0.02320313,0.03550906,0,0.05447684,0.01220313,0.02670537,0,0.02593505,-0.011,-0.007421074,0,0.03005318,0.006703125,0.00789884,0,0.006265606
462.1797,578.6651,692.1838,1270.849,29.42412,0.02457813,0.03707798,0,0.05440535,0.00721875,0.0215454,0,0.02593505,0.02595313,0.02541843,0,0.03001923,0.00446875,0.004421872,0,0.006258576
462.1806,578.0455,691.5625,1269.608,29.36531,0.00653125,0.01908712,0,0.054332,6.25E-16,0.01465314,0,0.02594998,0.0515625,0.0552684,0,0.02998597,0.00446875,0.00565275,0,0.006251363
462.1815,578.0455,690.9412,1268.987,29.33587,-0.01082812,0.001360926,0,0.05425817,-0.00721875,0.006790943,0,0.0259649,0.03471875,0.03370117,0,0.02995027,0.01185938,0.0116286,0,0.006243769
462.1824,578.6651,690.9412,1269.606,29.36523,-0.01753125,-0.004463846,0,0.05418477,-0.01667187,-0.001806455,0,0.02597982,0.008421875,0.01250869,0,0.02991493,0.0061875,0.007552645,0,0.006234443
462.1833,578.0455,690.9412,1268.987,29.33587,-0.03317187,-0.02166065,0,0.05411262,-0.02629687,-0.01257085,0,0.02597982,-0.00446875,-0.005999569,0,0.02988173,-0.000171875,-0.000766033,0,0.006224687
462.1842,578.0455,690.9412,1268.987,29.33587,-0.03884375,-0.0250766,0,0.05404136,-0.03540625,-0.02044738,0,0.02599474,-0.02079687,-0.01674434,0,0.0298484,6.25278E-16,0.001635248,0,0.006215389
462.1851,578.0455,690.9412,1268.987,29.33587,-0.02045312,-0.009498811,0,0.05397033,-0.03764062,-0.02396417,0,0.02600967,-0.008078125,-0.009166384,0,0.02981541,0.006359375,0.00548179,0,0.006206084
462.186,578.0455,690.9412,1269.606,29.36523,-0.02165625,-0.007670608,0,0.05390016,-0.04159375,-0.02670094,0,0.02600967,-0.04709375,-0.04409647,0,0.02978505,0.00034375,0.002120347,0,0.006196565
462.1869,578.6651,690.9412,1269.917,29.37995,-0.02646875,-0.01539682,0,0.05383068,-0.04107812,-0.02721966,0,0.02602459,-0.059125,-0.05868552,0,0.02975203,6.25278E-16,-0.00083432,0,0.006187432
462.1878,578.6651,691.5625,1270.228,29.39467,-0.04073437,-0.02721412,0,0.05376204,-0.03798437,-0.02317219,0,0.02602459,-0.01942187,-0.01776048,0,0.02971482,-0.00171875,-3.02E-05,0,0.006178861
462.1887,579.2847,692.1838,1271.468,29.45348,-0.04434375,-0.03278276,0,0.05369314,-0.02664062,-0.01248474,0,0.02602459,-0.02028125,-0.01849804,0,0.02968499,6.25278E-16,-0.000450179,0,0.006170468
462.1896,579.9043,692.8051,1272.709,29.51229,-0.04485937,-0.03174627,0,0.05362461,-0.01959375,-0.00477568,0,0.02602459,-0.02526562,-0.02368302,0,0.0296598,-0.004125,-0.00257226,0,0.006162075
462.1905,579.9043,694.0477,1273.952,29.57118,-0.04846875,-0.03678329,0,0.05356435,-0.023375,-0.008812317,0,0.02603951,0.0144375,0.01622086,0,0.02963479,-0.001546875,-0.001524091,0,0.006153983
462.1914,578.6651,694.0477,1272.713,29.51245,-0.04228125,-0.02902944,0,0.05351522,-0.02354687,-0.008716667,0,0.02603951,0.03042188,0.03348128,0,0.02962384,-0.0048125,-0.003137458,0,0.00614653
462.1923,578.6651,694.0477,1272.713,29.51245,-0.0213125,-0.009743529,0,0.0534742,-0.0226875,-0.007542803,0,0.02603951,0.02217188,0.02337982,0,0.02963581,-0.00721875,-0.006858238,0,0.006139355
462.1932,578.6651,693.4264,1272.092,29.48301,-0.002578125,0.01089684,0,0.05344052,-0.0323125,-0.01751492,0,0.02603951,0.015125,0.01948663,0,0.02965038,-0.00584375,-0.003710174,0,0.006131751
462.1941,579.2847,693.4264,1272.711,29.51238,0.0185625,0.03058524,0,0.05342132,-0.03867187,-0.02290825,0,0.02603951,0.01065625,0.01259341,0,0.02966475,-0.00446875,-0.003824906,0,0.006124176
462.195,579.2847,693.4264,1272.711,29.51238,0.02767188,0.04100941,0,0.05344338,-0.0433125,-0.02840342,0,0.02603951,0.01185938,0.01580783,0,0.02968232,-0.00653125,-0.003865579,0,0.00611669
462.1959,579.2847,693.4264,1273.022,29.52709,0.03660938,0.0497134,0,0.05351254,-0.05414062,-0.03806181,0,0.02603951,0.00103125,0.005261198,0,0.02971048,0.0034375,0.004579734,0,0.006109141
462.1968,579.2847,694.0477,1273.332,29.54182,0.0185625,0.0320465,0,0.05359653,-0.0501875,-0.03479316,0,0.02602459,-0.04279687,-0.03994475,0,0.02974746,0.0020625,0.005066851,0,0.006101347
462.1977,579.2847,694.6689,1273.954,29.57126,-0.02475,-0.0108314,0,0.05368307,-0.04382812,-0.02788929,0,0.02602459,-0.039875,-0.03411472,0,0.02978084,6.25278E-16,0.001929214,0,0.006093383
462.1986,579.2847,694.0477,1273.332,29.54182,-0.048125,-0.03339051,0,0.05377382,-0.0405625,-0.02445712,0,0.02600967,-0.01426562,-0.01070092,0,0.02981213,0.00309375,0.006283401,0,0.00608536
462.1995,579.9043,693.4264,1273.331,29.54174,-0.04589062,-0.03158846,0,0.05386505,-0.03557812,-0.01989449,0,0.02599474,-0.0336875,-0.0290152,0,0.02984805,0.003609375,0.006402274,0,0.006076923
462.2004,579.9043,694.0477,1273.952,29.57118,-0.02560937,-0.009135302,0,0.05395476,-0.03265625,-0.01614562,0,0.02597982,-0.01770312,-0.0114251,0,0.02988887,-0.00240625,0.00102548,0,0.006068348
462.2013,580.5239,694.6689,1275.193,29.63,-0.009796875,0.005801393,0,0.05404535,-0.02217187,-0.006339218,0,0.0259649,0.007046875,0.009605945,0,0.02993165,-0.0048125,-0.001287041,0,0.006059859
462.2022,579.9043,695.9115,1275.816,29.65952,-0.01082812,0.006245342,0,0.0541392,-0.00171875,0.01453572,0,0.02594998,0.01564063,0.02364466,0,0.02997421,-0.0048125,-0.001011606,0,0.006051468
462.2031,579.2847,695.9115,1275.196,29.63016,-0.0055,0.01340608,0,0.05423595,0.02595313,0.04242248,0,0.02593505,0.02904688,0.03171526,0,0.03001529,-0.007734375,-0.003617387,0,0.006043668
462.204,579.2847,695.9115,1275.196,29.63016,-0.01529687,0.001023236,0,0.05433373,0.05121875,0.06685314,0,0.02592013,-0.033,-0.02650992,0,0.03005436,-0.009453125,-0.005223009,0,0.006036337
462.2049,579.2847,695.9115,1274.576,29.60074,-0.0268125,-0.003741197,0,0.05443158,0.06410938,0.08117442,0,0.02589029,-0.034375,-0.02908784,0,0.03009343,-0.0075625,-0.002971417,0,0.006029127
462.2058,578.6651,695.2902,1273.955,29.57134,0.005328125,0.02155125,0,0.05453005,0.07029688,0.08562929,0,0.0258306,0.02595313,0.0297256,0,0.03013225,-0.01151562,-0.006777573,0,0.006021931
462.2067,578.6651,694.6689,1273.334,29.54189,0.031625,0.05720749,0,0.05463229,0.06204688,0.07909199,0,0.02575599,0.02595313,0.0328176,0,0.03016941,-0.01495312,-0.01007902,0,0.0060143
462.2076,579.2847,694.6689,1273.954,29.57126,0.0859375,0.1046323,0,0.0547334,0.04984375,0.06553979,0,0.02566645,0.0130625,0.01676567,0,0.03020376,-0.01151562,-0.006164228,0,0.006005522
462.2085,579.2847,695.9115,1275.196,29.63016,0.1038125,0.1293365,0,0.05482087,0.02853125,0.04495631,0,0.02554708,-0.000859375,0.003945149,0,0.0302378,-0.009109375,-0.004102753,0,0.005996234
462.2094,579.2847,695.2902,1274.575,29.60071,0.1122344,0.1353139,0,0.0548899,0.001375,0.01774652,0,0.02544262,-0.001546875,0.004999479,0,0.03027239,-0.00790625,-0.002027108,0,0.005986708
462.2103,579.9043,694.6689,1274.573,29.60063,0.08353125,0.1081063,0,0.05494008,-0.01839062,-0.002604012,0,0.02532324,-0.00171875,-0.000247635,0,0.03030853,-0.01151562,-0.006265395,0,0.005977343
462.2112,580.5239,694.6689,1275.193,29.63,-0.00171875,0.02524098,0,0.05498152,-0.02767187,-0.01096022,0,0.02520386,-0.02629687,-0.01811452,0,0.03034748,-0.01821875,-0.01220322,0,0.005967573
462.2121,581.1435,695.2902,1276.434,29.6888,-0.03764062,-0.0128284,0,0.05502893,-0.03334375,-0.01767674,0,0.02509941,-0.0034375,-0.002123837,0,0.0303882,-0.009453125,-0.003683491,0,0.005956281
462.213,581.1435,695.2902,1276.434,29.6888,-0.03798437,-0.008999131,0,0.05507904,-0.0391875,-0.02275093,0,0.02498003,0.011,0.01652844,0,0.03042915,-0.0061875,-0.000394029,0,0.005945126
462.2139,581.1435,695.2902,1276.435,29.68884,-0.0721875,-0.04575856,0,0.0551302,-0.03901562,-0.02300176,0,0.02486065,0.006359375,0.01136726,0,0.03046933,-0.01134375,-0.005039708,0,0.005934259
462.2148,580.5239,695.9115,1276.435,29.68888,-0.1089687,-0.07912175,0,0.05517978,-0.04451562,-0.02866208,0,0.02474128,-0.03042187,-0.02983775,0,0.03050919,-0.008765625,-0.003152581,0,0.005923705
462.2157,579.9043,695.9115,1275.816,29.65952,-0.1077656,-0.07967646,0,0.05522113,-0.04640625,-0.0300697,0,0.0246219,-0.03265625,-0.02398664,0,0.03054715,-0.00790625,-0.001479239,0,0.005913812
462.2166,579.9043,696.5328,1276.437,29.68896,-0.10725,-0.07650989,0,0.05525359,-0.03695312,-0.02151918,0,0.0244876,0.05775,0.05557524,0,0.03058565,-0.001375,0.004387332,0,0.005904699
462.2175,579.9043,695.2902,1275.195,29.63007,-0.1112031,-0.08227967,0,0.05527971,-0.04004687,-0.02377819,0,0.02436822,0.02475,0.03363215,0,0.03061812,0.00275,0.00882748,0,0.00589618
462.2184,579.2847,695.2902,1274.575,29.60071,-0.1295937,-0.09783422,0,0.05530166,-0.04210937,-0.02680596,0,0.02423392,-0.02182812,-0.02317215,0,0.03064819,0.001375,0.007408671,0,0.005887546
462.2193,579.9043,695.2902,1275.195,29.63007,-0.1290781,-0.09985514,0,0.05531752,-0.03575,-0.01987182,0,0.02409962,-0.0158125,-0.009393757,0,0.03067762,0.006875,0.01252106,0,0.005878934
462.2202,579.2847,694.6689,1273.954,29.57126,-0.1039844,-0.07167168,0,0.05532462,-0.03454687,-0.01930247,0,0.02398024,-0.03832812,-0.03756741,0,0.03071096,0.005671875,0.01165431,0,0.0058686
462.2211,579.2847,694.6689,1273.954,29.57126,-0.07115625,-0.04165548,0,0.05532626,-0.0364375,-0.02100726,0,0.02384594,-0.05414062,-0.04992894,0,0.03074904,0.000171875,0.005691025,0,0.005857222
462.222,579.2847,694.6689,1272.092,29.48301,-0.05603125,-0.02391824,0,0.05532782,-0.0323125,-0.01728377,0,0.02371164,-0.006875,-0.00509742,0,0.03078296,0.004296875,0.009711498,0,0.005846423
462.2229,578.6651,693.4264,1271.781,29.46828,-0.0199375,0.009763277,0,0.05533793,-0.0268125,-0.01177158,0,0.02357734,-0.005671875,-0.002230616,0,0.03081785,0.002234375,0.007934163,0,0.005834964
462.2238,578.6651,692.8051,1271.47,29.45356,0.009109375,0.04049499,0,0.05536356,-0.022,-0.007349994,0,0.02344304,-0.0130625,-0.01123526,0,0.0308555,-0.00446875,6.57211E-05,0,0.005823398
462.2247,579.2847,693.4264,1272.711,29.51238,-0.01340625,0.01610711,0,0.05539698,-0.0213125,-0.006664831,0,0.02332366,6.25E-16,0.003163495,0,0.03089387,-0.003953125,0.001925631,0,0.005812885
462.2256,579.2847,694.0477,1273.332,29.54182,-0.07390625,-0.04356483,0,0.05543329,-0.01770312,-0.003549172,0,0.02318936,0.006703125,0.008706325,0,0.03093308,6.25278E-16,0.003716872,0,0.005803426
462.2265,579.2847,694.0477,1273.332,29.54182,-0.1216875,-0.09288862,0,0.05546851,-0.01375,0.000503303,0,0.02305506,0.00653125,0.009250391,0,0.03097334,-0.00653125,-0.000820181,0,0.005793962
462.2274,578.0455,693.4264,1271.472,29.45365,-0.1412812,-0.1122204,0,0.05549253,-0.01684375,-0.003362226,0,0.02293568,0.008765625,0.01110878,0,0.03101546,-0.008078125,-0.004810931,0,0.005784998
462.2283,578.0455,693.4264,1271.472,29.45365,-0.1084531,-0.08086381,0,0.05549923,-0.02165625,-0.007711312,0,0.02280138,0.002234375,0.004745703,0,0.03105891,-0.0089375,-0.003936452,0,0.005778453
462.2292,578.0455,693.4264,1271.472,29.45365,-0.04984375,-0.02224745,0,0.0554999,-0.0158125,-0.003193467,0,0.02266708,-0.00721875,-0.00484432,0,0.03110348,0.000515625,0.003824662,0,0.005774048
462.2301,578.0455,692.8051,1270.851,29.4242,-0.009796875,0.01617597,0,0.05550443,-0.008765625,0.004873504,0,0.02253278,-0.004984375,-0.002332072,0,0.03114961,0.00584375,0.009626593,0,0.005772025
462.231,577.4259,692.8051,1270.231,29.39483,0.01082813,0.03671766,0,0.05551624,-0.004125,0.007675411,0,0.02239848,0.01048438,0.01297865,0,0.03119688,0.00240625,0.006126637,0,0.005772112
462.2319,577.4259,692.8051,1270.541,29.40951,0.02114063,0.04530702,0,0.05554103,-0.00378125,0.009261337,0,0.02226418,0.02715625,0.02949635,0,0.03124551,-0.001546875,0.000763103,0,0.005772852
462.2328,578.0455,692.8051,1270.851,29.4242,0.0185625,0.04236128,0,0.05557861,0.00171875,0.01303615,0,0.0221448,0.02560938,0.02910856,0,0.03129272,-0.00378125,0.000405619,0,0.00577418
462.2337,578.6651,692.8051,1271.47,29.45356,0.02784375,0.05023582,0,0.05562898,0.00103125,0.01306849,0,0.0220105,0.01409375,0.01529376,0,0.03134179,6.25278E-16,0.000982568,0,0.005776189
462.2346,578.0455,691.5625,1269.608,29.36531,0.04864063,0.06999682,0,0.05569312,0.001203125,0.0123209,0,0.0218762,0.006359375,0.01130635,0,0.03141241,-0.006875,-0.002537889,0,0.005778864
462.2355,578.6651,691.5625,1270.228,29.39467,0.05878125,0.07934084,0,0.05576779,6.25E-16,0.01092926,0,0.0217419,0.0144375,0.01484371,0,0.03149242,-0.004640625,-0.004484801,0,0.005781665
462.2364,578.6651,691.5625,1270.228,29.39467,0.05121875,0.07012611,0,0.0558423,-0.0061875,0.004613095,0,0.0216076,0.03076563,0.03596795,0,0.03157252,-0.00721875,-0.003292292,0,0.005784403
462.2373,578.6651,692.1838,1270.849,29.42412,0.03575,0.05415707,0,0.05591394,-0.01117187,-0.001002886,0,0.0214733,0.04245313,0.04394995,0,0.03165459,-0.006703125,-0.006722264,0,0.005787267
462.2382,578.6651,692.1838,1270.849,29.42412,0.02251563,0.03934844,0,0.05598434,-0.01117187,-0.001088845,0,0.021339,-0.01684375,-0.01347576,0,0.03173483,-0.01220312,-0.009212434,0,0.005789583
462.2391,578.6651,691.5625,1270.228,29.39467,0.02028125,0.03614458,0,0.05605592,-0.006875,0.002991073,0,0.02121963,-0.06565625,-0.06144098,0,0.03181595,-0.0055,-0.005234001,0,0.005791174
462.24,577.4259,691.5625,1268.988,29.33594,0.04485938,0.0600492,0,0.05613058,-0.00275,0.00638088,0,0.02110025,-0.0433125,-0.04253658,0,0.03188964,-0.004984375,-0.003073542,0,0.005792677
462.2409,577.4259,691.5625,1268.989,29.33598,0.06617188,0.0793314,0,0.05620878,6.25E-16,0.009749553,0,0.02098087,-0.01460937,-0.00816991,0,0.03195894,-0.004640625,-0.004103431,0,0.005794151
462.2418,576.8063,692.1838,1268.99,29.33602,0.05946875,0.07333071,0,0.05629393,0.004125,0.01244556,0,0.02086149,-0.0034375,-0.003645654,0,0.03202879,-0.008765625,-0.00755602,0,0.005795933
462.2427,576.1867,691.5625,1267.749,29.27722,0.067375,0.0779506,0,0.05639246,0.002921875,0.01250061,0,0.02074211,-0.02664062,-0.0203614,0,0.03209999,-0.009453125,-0.009066216,0,0.005797613
462.2436,576.8063,691.5625,1268.369,29.30658,0.06617188,0.07883176,0,0.05650196,0.009796875,0.01761455,0,0.02062274,-0.01271875,-0.01154392,0,0.03217098,-0.004984375,-0.003883083,0,0.005798372
462.2445,576.1867,691.5625,1267.749,29.27722,0.04279688,0.05131422,0,0.05661742,0.0103125,0.01968172,0,0.02050336,0.007734375,0.01199745,0,0.03224197,-0.00034375,-0.000433441,0,0.005799315
462.2454,576.1867,690.3199,1266.507,29.21832,0.01048438,0.02162862,0,0.05673663,0.00446875,0.01200896,0,0.02038398,0.01839063,0.02158658,0,0.03231373,0.00171875,0.002932657,0,0.005802044
462.2463,576.1867,689.6986,1265.885,29.18888,-0.01014062,-0.002486478,0,0.05685723,-0.0034375,0.005819054,0,0.0202646,0.02423438,0.02705288,0,0.03238514,0.0048125,0.00447153,0,0.005806857
462.2472,577.4259,689.6986,1267.125,29.24761,-0.02595312,-0.0172157,0,0.05698088,-0.011,-0.00358349,0,0.02014522,0.02028125,0.02370681,0,0.03245683,0.0006875,0.001675469,0,0.005812459
462.2481,578.6651,689.6986,1268.364,29.30634,-0.05534375,-0.04692012,0,0.05710703,-0.02217187,-0.01288893,0,0.02002585,0.0171875,0.02086051,0,0.0325391,0.005671875,0.005686626,0,0.005818503
462.249,578.0455,690.3199,1268.366,29.30642,-0.1024375,-0.09687059,0,0.05723248,-0.0199375,-0.01244506,0,0.01990647,0.02921875,0.0305781,0,0.03263948,0.00584375,0.006206496,0,0.005824689
462.2499,578.0455,690.3199,1268.366,29.30642,-0.1032969,-0.09310992,0,0.05734905,-0.02440625,-0.0149858,0,0.01978709,0.015125,0.02107047,0,0.03274471,0.000171875,0.000857558,0,0.005830557
462.2508,578.0455,690.3199,1268.366,29.30642,-0.06359375,-0.06065739,0,0.05745886,-0.0275,-0.01967803,0,0.01966771,-0.03970312,-0.0406391,0,0.03285335,6.25278E-16,-0.000111582,0,0.005837285
462.2517,577.4259,689.6986,1267.125,29.24761,-0.0625625,-0.0511944,0,0.05756672,-0.03196875,-0.02231004,0,0.01956326,-0.09814062,-0.09111784,0,0.03296286,-0.0048125,-0.003764651,0,0.005846223
462.2526,576.8063,689.6986,1266.505,29.21825,-0.028875,-0.02649601,0,0.05767109,-0.0350625,-0.02666123,0,0.01944388,-0.059125,-0.06020082,0,0.03305453,-0.006875,-0.006827669,0,0.00585646
462.2535,576.8063,689.6986,1266.505,29.21825,-0.02698437,-0.01609245,0,0.05777483,-0.031625,-0.02164946,0,0.01933942,-0.02578125,-0.02021792,0,0.03314219,-0.0061875,-0.005276595,0,0.005866887
462.2544,576.1867,689.6986,1265.885,29.18888,-0.04915625,-0.04501016,0,0.05787839,-0.02371875,-0.01445868,0,0.01923497,-0.0419375,-0.04100337,0,0.03323222,-0.0048125,-0.004168929,0,0.005877431
462.2553,575.5671,688.4561,1264.023,29.10063,-0.0763125,-0.066959,0,0.05797933,-0.02354687,-0.01324501,0,0.01913051,-0.06892187,-0.06599605,0,0.03331851,-0.0048125,-0.004052596,0,0.005887844
462.2562,575.5671,689.0774,1264.645,29.13007,-0.0721875,-0.06530144,0,0.0580743,-0.01220312,-0.001778454,0,0.01904098,-0.02715625,-0.02428435,0,0.03339475,-0.002921875,-0.001896618,0,0.005898085
462.2571,575.5671,688.4561,1264.023,29.10063,-0.05276562,-0.04433454,0,0.05816349,0.002578125,0.01322289,0,0.01893652,0.02595313,0.02741689,0,0.03347002,0.001375,0.002542333,0,0.005908413
462.258,576.1867,687.8348,1264.021,29.10055,-0.03317187,-0.02413206,0,0.05825051,0.0055,0.01725532,0,0.01884699,0.01495313,0.0181182,0,0.03354673,0.001203125,0.002046398,0,0.005919464
462.2589,576.1867,687.8348,1264.021,29.10051,-0.02698437,-0.01787071,0,0.05833711,0.004125,0.01532547,0,0.01874253,0.00378125,0.005316786,0,0.03363712,-0.00275,-0.000637069,0,0.005932493
462.2598,576.8063,687.2135,1264.02,29.10046,-0.02096875,-0.01067349,0,0.05842341,6.25E-16,0.01295052,0,0.01863808,0.00928125,0.01201551,0,0.03373383,0.0006875,0.001144268,0,0.00594736
462.2607,576.8063,687.2135,1264.02,29.10046,-0.01357812,-0.002644893,0,0.05850974,-0.001203125,0.01098979,0,0.01854854,0.01667188,0.01814008,0,0.03383367,0.00103125,0.003987747,0,0.005963559
462.2616,576.8063,686.5922,1263.399,29.07102,-0.01082812,0.000636374,0,0.05859599,-0.009625,0.004206997,0,0.01844409,0.02148438,0.02482752,0,0.03393375,0.005328125,0.005911629,0,0.005980481
462.2625,576.8063,687.2135,1264.02,29.10046,-0.00515625,0.007669852,0,0.05868216,-0.01598437,-0.002417396,0,0.01835455,0.03059375,0.03084326,0,0.03403412,0.005671875,0.008716105,0,0.005997029
462.2634,577.4259,687.2135,1264.639,29.12983,0.003953125,0.01719458,0,0.05876813,-0.015125,-0.000579926,0,0.01826502,0.048125,0.05292218,0,0.03413683,0.008765625,0.01033872,0,0.006012801
462.2643,576.8063,687.8348,1264.641,29.12991,0.01151563,0.025924,0,0.0588539,-0.01925,-0.004247926,0,0.01817549,0.03403125,0.03328784,0,0.03424387,0.00584375,0.008230816,0,0.006027496
462.2652,576.1867,687.8348,1264.021,29.10055,0.02010938,0.03557049,0,0.05894042,-0.0281875,-0.01283229,0,0.01807103,-0.02526562,-0.02015803,0,0.03435263,0.002578125,0.0055614,0,0.006041583
462.2661,575.5671,687.2135,1262.781,29.04174,0.01048438,0.02650908,0,0.05902859,-0.02028125,-0.004068334,0,0.0179815,-0.01460937,-0.01428155,0,0.03446046,0.00240625,0.004133016,0,0.006055719
462.267,575.5671,685.3496,1260.917,28.9534,-0.02509375,-0.007464683,0,0.0591198,-0.004296875,0.0120309,0,0.01790689,0.004125,0.007514426,0,0.03456765,0.00309375,0.006998403,0,0.006069852
462.2679,575.5671,685.3496,1260.606,28.93868,-0.06032812,-0.04249892,0,0.05921561,-0.0020625,0.01512125,0,0.01781735,0.008078125,0.01110635,0,0.0346744,0.007734375,0.009596954,0,0.006083527
462.2688,575.5671,684.7283,1260.295,28.92395,-0.07046875,-0.05067634,0,0.05932135,0.000515625,0.01783152,0,0.01774274,-0.00103125,0.000277484,0,0.03478087,0.0006875,0.004522896,0,0.006096038
462.2697,575.5671,684.7283,1260.295,28.92395,-0.03575,-0.01633147,0,0.05944596,0.006703125,0.02471764,0,0.01765321,-0.01753125,-0.01247724,0,0.03488764,-0.0055,-0.002680326,0,0.006108439
462.2706,576.1867,685.3496,1261.536,28.98277,-0.011,0.01130172,0,0.05958922,0.00515625,0.02332647,0,0.0175786,0.01220313,0.01318743,0,0.03499485,-0.0144375,-0.01123464,0,0.006121048
462.2715,576.1867,684.7283,1260.915,28.95332,-0.01684375,0.003698081,0,0.0597396,-0.000859375,0.01787659,0,0.01750399,0.009625,0.0147226,0,0.03510271,-0.0158125,-0.01200986,0,0.006132631
462.2724,576.8063,684.7283,1261.535,28.98269,-0.0185625,0.006272675,0,0.0598898,-0.00790625,0.0109301,0,0.01742937,0.001546875,0.004008766,0,0.03521154,-0.008078125,-0.005174486,0,0.006142883
462.2733,576.8063,684.7283,1261.535,28.98269,-0.004640625,0.01719559,0,0.06004113,-0.01804687,0.001276124,0,0.01735476,0.02526563,0.02953953,0,0.035321,-0.01082812,-0.006760994,0,0.006153359
462.2742,576.1867,685.3496,1261.536,28.98277,0.003953125,0.03027506,0,0.06019302,-0.02629687,-0.007046215,0,0.01728015,0.01323438,0.01717398,0,0.03542934,-0.008765625,-0.005469731,0,0.006164518
462.2751,576.1867,684.7283,1260.915,28.95332,0.02423438,0.04843198,0,0.06034382,-0.03626562,-0.01646981,0,0.01720554,-0.006875,-0.002531634,0,0.03553761,-0.004125,-0.000429245,0,0.006176119
462.276,576.1867,684.7283,1260.915,28.95332,0.02732813,0.05351175,0,0.06049124,-0.03901562,-0.01969146,0,0.01714585,-0.00378125,0.000352564,0,0.03564592,-0.003265625,0.000641264,0,0.006187819
462.2769,576.1867,684.7283,1260.915,28.95332,0.04142188,0.06888922,0,0.06063493,-0.03609375,-0.01592026,0,0.01708616,-0.03471875,-0.0291315,0,0.03575434,-0.0006875,0.002647504,0,0.006199958
462.2778,576.1867,684.7283,1260.915,28.95332,0.04898438,0.0742708,0,0.06077402,-0.03678125,-0.01767459,0,0.01702647,-0.03884375,-0.03510586,0,0.03586254,-0.00446875,-0.000309036,0,0.006212538
462.2787,575.5671,684.7283,1260.295,28.92395,0.0158125,0.04595698,0,0.06091019,-0.03523437,-0.01494058,0,0.01698171,-0.009109375,-0.002497226,0,0.03596833,-0.0048125,-0.001520836,0,0.00622585
462.2796,575.5671,684.7283,1260.295,28.92395,-0.00240625,0.02282451,0,0.06105304,-0.02664062,-0.00779643,0,0.01693694,0.007734375,0.01204138,0,0.03607613,-0.003953125,0.00014225,0,0.006239713
462.2805,575.5671,683.4858,1259.053,28.86507,-0.02904687,0.001816356,0,0.06120377,-0.02973437,-0.009846002,0,0.01687725,0.02457813,0.03074118,0,0.03618512,-0.0055,-0.0022359,0,0.006253971
462.2814,575.5671,682.8645,1258.432,28.83562,-0.04159375,-0.01492337,0,0.06135817,-0.028875,-0.01013496,0,0.01684741,0.01323438,0.01942453,0,0.03629436,-0.0048125,-0.000702185,0,0.006268357
462.2823,575.5671,682.2432,1257.81,28.80618,-0.05190625,-0.02208925,0,0.06151301,-0.02354687,-0.0046369,0,0.01683248,-0.04571875,-0.04085529,0,0.03641167,-0.0020625,0.000914868,0,0.006282937
462.2832,574.9475,681.6219,1256.569,28.74736,-0.06875,-0.04014999,0,0.06166705,-0.01907812,-0.000424719,0,0.01681756,-0.05173437,-0.04400617,0,0.0365302,-0.00309375,0.001159272,0,0.006298483
462.2841,574.9475,682.2432,1257.191,28.77681,-0.07596875,-0.0475693,0,0.06181881,-0.01392187,0.003791979,0,0.01683248,-0.004984375,-0.000152299,0,0.03664435,-0.001890625,0.000744758,0,0.006314806
462.285,575.5671,682.8645,1258.432,28.83562,-0.06720312,-0.03758362,0,0.06196761,-0.01134375,0.006791278,0,0.01686233,0.02045313,0.02744846,0,0.0367583,-0.006703125,-0.002512789,0,0.006331092
462.2859,575.5671,682.8645,1259.052,28.86503,-0.05070312,-0.02309249,0,0.06211514,-0.01151562,0.005284826,0,0.01689217,0.03729688,0.04434535,0,0.03687073,-0.00275,-0.000204316,0,0.006347382
462.2868,576.1867,683.4858,1259.673,28.89443,-0.02715625,0.002266071,0,0.06226195,-0.01890625,-0.002012686,0,0.01693694,0.03626563,0.0406515,0,0.03697994,-0.003609375,0.00022303,0,0.006363818
462.2877,576.1867,683.4858,1259.673,28.89443,-0.01357812,0.01357072,0,0.06240846,-0.0254375,-0.009151446,0,0.01698171,0.03351563,0.04303265,0,0.03708813,-0.007734375,-0.005158106,0,0.006380272
462.2886,576.1867,683.4858,1259.673,28.89443,-0.02165625,0.007155977,0,0.06255466,-0.02320312,-0.008030643,0,0.01702647,0.04451563,0.04750015,0,0.03719574,-0.008078125,-0.004574878,0,0.00639636
462.2895,574.9475,684.1071,1259.055,28.86515,0.0158125,0.04196648,0,0.06270099,-0.020625,-0.004866265,0,0.01707124,0.04004688,0.04898666,0,0.03729856,-0.001546875,0.000857444,0,0.006412149
462.2904,574.9475,684.7283,1259.676,28.89459,0.07803125,0.1064831,0,0.06284551,-0.0199375,-0.006350433,0,0.01711601,0.01478125,0.01988645,0,0.03739637,0.000515625,0.003917248,0,0.006427892
462.2913,576.1867,684.7283,1260.915,28.95332,0.09917188,0.123682,0,0.06297668,-0.01564062,-0.00091038,0,0.01716077,-0.1019219,-0.09709365,0,0.03749401,-0.00240625,-0.0003011,0,0.006443463
462.2922,575.5671,684.7283,1260.295,28.92395,0.06032813,0.08825579,0,0.06309027,-0.00240625,0.01012058,0,0.01720554,-0.147125,-0.1381432,0,0.0375727,-0.00721875,-0.003988983,0,0.00645901
462.2931,575.5671,684.7283,1260.295,28.92395,0.006359375,0.02936401,0,0.06319512,-0.0020625,0.01109546,0,0.01725031,-0.05053125,-0.04970393,0,0.03761245,-0.00515625,-0.003060895,0,0.006474416
462.294,575.5671,684.7283,1260.295,28.92395,-0.07098437,-0.04457901,0,0.06329879,-0.003953125,0.007897604,0,0.01731,-0.01890625,-0.008643209,0,0.03764789,-0.00825,-0.005575566,0,0.006490032
462.2949,575.5671,684.7283,1260.606,28.93868,-0.1500469,-0.1276237,0,0.0633999,-0.0103125,0.001153137,0,0.01736969,-0.03592187,-0.03520936,0,0.03768478,-0.008765625,-0.006294527,0,0.006505391
462.2958,575.5671,685.3496,1260.917,28.9534,-0.1973125,-0.1736083,0,0.06348098,-0.0213125,-0.01014685,0,0.01742937,-0.0886875,-0.08171891,0,0.03772037,-0.006359375,-0.004405075,0,0.006520371
462.2967,576.1867,684.7283,1260.915,28.95332,-0.1524531,-0.1299404,0,0.0635253,-0.02045312,-0.0103696,0,0.01748906,-0.08507812,-0.08106781,0,0.03774252,-0.003265625,-0.000456526,0,0.006535215
462.2976,576.1867,684.7283,1260.915,28.95332,-0.09521875,-0.0745347,0,0.06355035,-0.0171875,-0.006928666,0,0.01754875,-0.02509375,-0.0232086,0,0.03775116,0.00240625,0.003982053,0,0.006550215
462.2985,576.1867,685.3496,1261.536,28.98277,-0.09332812,-0.07107319,0,0.06356925,-0.015125,-0.005936795,0,0.01760844,0.00240625,0.009125204,0,0.03776068,-0.00275,-5.99E-06,0,0.006565723
462.2994,576.1867,686.5922,1262.779,29.04165,-0.06685937,-0.04847417,0,0.06358193,-0.00653125,0.002611378,0,0.01766813,0.045375,0.044462,0,0.03777125,-0.0020625,-0.00041055,0,0.006581367
462.3003,576.1867,686.5922,1262.779,29.04165,-0.0213125,-0.000325794,0,0.0635924,0.002578125,0.01137929,0,0.01774274,0.06720313,0.07316409,0,0.03777787,0.000171875,0.002637801,0,0.006597218
462.3012,575.5671,686.5922,1262.159,29.0123,0.020625,0.03770713,0,0.06360386,0.00859375,0.0164673,0,0.01781735,0.04245313,0.04201769,0,0.03777409,-0.001375,0.000423417,0,0.006613244
462.3021,574.9475,687.8348,1262.782,29.04181,0.04915625,0.06822173,0,0.06361426,0.009109375,0.01798794,0,0.01787704,0.004125,0.006866566,0,0.03776684,0.0020625,0.004472701,0,0.006629302
462.303,574.9475,688.4561,1263.404,29.07126,0.0488125,0.06496446,0,0.06361965,0.01185938,0.01849183,0,0.01793673,0.00584375,0.006871968,0,0.03775969,0.0075625,0.009270345,0,0.006645247
462.3039,574.9475,688.4561,1262.782,29.04181,0.017875,0.03518218,0,0.06362066,0.01478125,0.02392374,0,0.01801134,0.02320313,0.02309991,0,0.03775339,0.006703125,0.009365272,0,0.00666025
462.3048,574.9475,687.2135,1262.161,29.01237,-0.0048125,0.01018966,0,0.0636223,0.0130625,0.01893828,0,0.01807103,0.03110938,0.03231424,0,0.03774816,0.007046875,0.008577337,0,0.006674344
462.3057,574.9475,687.8348,1262.782,29.04181,-0.0446875,-0.02863531,0,0.06362766,-0.002234375,0.006854448,0,0.01814564,0.02320313,0.021973,0,0.03774152,0.00171875,0.004624648,0,0.00668794
462.3066,574.9475,688.4561,1263.404,29.07126,-0.08439062,-0.07056689,0,0.06363519,-0.0020625,0.004021471,0,0.01823518,0.00515625,0.00511219,0,0.03773588,0.003609375,0.005222204,0,0.006701323
462.3075,575.5671,688.4561,1264.023,29.10063,-0.07235937,-0.05747635,0,0.06363899,-0.008078125,0.000401902,0,0.01833963,0.008421875,0.007088758,0,0.03773188,0.00275,0.005638006,0,0.006714723
462.3084,576.1867,687.8348,1264.021,29.10055,-0.008765625,0.004505653,0,0.0636424,-0.01460937,-0.007415057,0,0.01845901,0.01753125,0.01602648,0,0.03772901,-0.00309375,-0.001053715,0,0.006728341
462.3093,576.8063,688.4561,1265.262,29.15936,0.03798438,0.05135242,0,0.06365392,-0.02509375,-0.01736066,0,0.01859331,0.00584375,0.004333761,0,0.03772607,-0.002921875,-0.000236066,0,0.006742167
462.3102,577.4259,689.0774,1266.503,29.21816,0.04915625,0.06260884,0,0.06367337,-0.02921875,-0.02073525,0,0.01871269,-0.00275,-0.005094504,0,0.03772323,0.003265625,0.005857248,0,0.006756299
462.3111,576.8063,689.6986,1266.505,29.21825,0.0543125,0.06621377,0,0.06369944,-0.02148437,-0.01384849,0,0.01884699,0.004984375,0.002903799,0,0.03772036,0.000859375,0.003428923,0,0.006770142
462.312,576.1867,690.3199,1266.507,29.21832,0.05517188,0.06876325,0,0.06373304,-0.02526562,-0.01603164,0,0.01896637,0.002578125,-1.47E-05,0,0.03771749,-0.0048125,-0.001822921,0,0.006784565
462.3129,576.1867,690.3199,1266.817,29.23305,0.03935938,0.05082942,0,0.06377405,-0.02732812,-0.01875269,0,0.01910067,-0.00584375,-0.008512694,0,0.03771498,-0.00446875,-0.001743391,0,0.006801713
462.3138,576.1867,690.9412,1267.128,29.24777,0.02492188,0.03778368,0,0.0638208,-0.02217187,-0.01278685,0,0.01922004,0.000859375,-0.001862324,0,0.03771239,-0.0020625,0.001070202,0,0.006819155
462.3147,575.5671,692.1838,1267.751,29.2773,0.03265625,0.04517412,0,0.06386942,-0.02320312,-0.01298979,0,0.01933942,0.00171875,-0.00107872,0,0.03771011,-0.004296875,-0.001170824,0,0.006836542
462.3156,575.5671,692.1838,1267.751,29.2773,0.02217188,0.03368913,0,0.06391872,-0.02010937,-0.01064632,0,0.0194588,0.006875,0.003883541,0,0.03770798,-0.007734375,-0.004595252,0,0.006854063
462.3165,574.9475,692.1838,1267.131,29.24793,-0.0055,0.008716973,0,0.06397214,-0.01375,-0.001854158,0,0.01957818,0.0350625,0.03270293,0,0.03770676,-0.00275,0.000780376,0,0.006871356
462.3174,574.9475,692.8051,1267.753,29.27737,-0.031625,-0.02091103,0,0.06403047,-0.008421875,0.001563891,0,0.01971248,0.0385,0.03517926,0,0.03770392,-0.0020625,0.001224384,0,0.006888612
462.3183,574.3279,692.8051,1267.133,29.24801,-0.07734375,-0.06198733,0,0.06409189,-0.008421875,0.004791932,0,0.01983186,0.01082813,0.009258648,0,0.03770178,-0.01151562,-0.007860286,0,0.006906001
462.3192,574.9475,692.8051,1267.753,29.27737,-0.094875,-0.0836124,0,0.06415321,6.25E-16,0.01103892,0,0.01995123,-0.008078125,-0.01147806,0,0.03770119,-0.01289062,-0.0091495,0,0.00692372
462.3201,575.5671,693.4264,1268.994,29.33619,-0.094875,-0.07921918,0,0.06421218,0.002578125,0.01676716,0,0.02007061,-0.05190625,-0.05269775,0,0.03770143,-0.01117187,-0.007703623,0,0.006941094
462.321,575.5671,693.4264,1268.994,29.33619,-0.06496875,-0.05218449,0,0.06426949,0.01048438,0.02286383,0,0.02020491,-0.0735625,-0.07654815,0,0.03769619,-0.01460937,-0.01027007,0,0.006958841
462.3219,575.5671,693.4264,1269.614,29.36559,-0.04210937,-0.02623364,0,0.0643266,0.01048438,0.02552207,0,0.02032429,-0.0364375,-0.0365759,0,0.03768033,-0.01375,-0.01049094,0,0.006976477
462.3228,576.1867,694.0477,1270.234,29.39499,-0.05173437,-0.03735854,0,0.0643839,0.0116875,0.02540943,0,0.02044367,-0.00034375,-0.002443507,0,0.03766438,-0.0144375,-0.009726584,0,0.006993251
462.3237,576.1867,694.6689,1270.856,29.42444,-0.06771875,-0.05111443,0,0.06443979,0.00653125,0.02241205,0,0.02056305,6.25E-16,0.000542708,0,0.03764891,-0.01357812,-0.01025531,0,0.007009455
462.3246,576.8063,695.2902,1272.097,29.48325,-0.06685937,-0.05111372,0,0.06449273,-0.005328125,0.009640823,0,0.02068242,0.0158125,0.01477515,0,0.03763776,-0.0171875,-0.01249636,0,0.007024827
462.3255,577.4259,695.9115,1273.337,29.54206,-0.06926562,-0.0515174,0,0.06454457,-0.01959375,-0.002947367,0,0.0208018,0.02457813,0.02602231,0,0.03762934,-0.01615625,-0.01253632,0,0.007038488
462.3264,576.8063,695.9115,1272.718,29.51269,-0.06273437,-0.04562453,0,0.06459456,-0.02096875,-0.004769225,0,0.02092118,0.0295625,0.02958922,0,0.03761992,-0.009796875,-0.005332451,0,0.007050744
462.3273,575.5671,697.1541,1272.721,29.51285,-0.05723437,-0.0381651,0,0.06464369,-0.01907812,-0.001913293,0,0.02104056,0.037125,0.03961628,0,0.03760904,0.0048125,0.008710041,0,0.00706312
462.3282,575.5671,696.5328,1272.1,29.4834,-0.03110937,-0.01276078,0,0.06469631,-0.01907812,-0.001612788,0,0.02115994,0.03471875,0.03602037,0,0.03759492,0.01529688,0.01953335,0,0.007074662
462.3291,576.1867,696.5328,1272.719,29.51277,6.25E-16,0.02076091,0,0.0647567,-0.022,-0.00456212,0,0.02127931,0.02784375,0.03112439,0,0.03757853,0.01357813,0.01764495,0,0.007082423
462.33,576.8063,696.5328,1273.339,29.54214,0.02629688,0.04541378,0,0.06482129,-0.02389062,-0.005326056,0,0.02139869,0.033,0.03613012,0,0.03756035,0.01392188,0.01787028,0,0.00708678
462.3309,576.8063,696.5328,1273.65,29.55686,0.072875,0.09567772,0,0.06488453,-0.0240625,-0.006362281,0,0.02151807,0.02595313,0.02938853,0,0.03753967,0.0171875,0.02144169,0,0.007087677
462.3318,576.8063,697.1541,1273.96,29.57158,0.122375,0.1421173,0,0.06493816,-0.02560937,-0.006424173,0,0.02163745,0.02165625,0.02719796,0,0.0375188,0.0089375,0.01244202,0,0.007083954
462.3327,576.1867,697.1541,1273.341,29.54222,0.12375,0.1480811,0,0.0649702,-0.02010937,-0.001975478,0,0.02175683,0.01392188,0.01713228,0,0.03750196,0.001375,0.005817818,0,0.007078727
462.3336,576.1867,697.1541,1273.341,29.54222,0.1252969,0.1465053,0,0.06497793,-0.02560937,-0.00632034,0,0.02189113,-0.06445312,-0.05663326,0,0.03748989,0.00515625,0.008225174,0,0.007073187
462.3345,576.8063,697.1541,1273.96,29.57158,0.1313125,0.1557688,0,0.06496081,-0.0309375,-0.01236442,0,0.0220105,-0.1340625,-0.1305973,0,0.0374719,0.00240625,0.006789163,0,0.007066974
462.3354,576.1867,696.5328,1272.719,29.51277,0.1332031,0.1569265,0,0.0649162,-0.02767187,-0.008504606,0,0.0221448,-0.09367187,-0.08464863,0,0.03742383,-0.001375,0.00153361,0,0.00706024
462.3363,576.1867,696.5328,1272.719,29.51277,0.07665625,0.1002967,0,0.06484569,-0.02939062,-0.01068452,0,0.0222791,-0.00034375,0.004469171,0,0.03736639,-0.009453125,-0.00552299,0,0.007053518
462.3372,576.1867,697.1541,1273.341,29.54222,-0.01082812,0.01519898,0,0.0647677,-0.0378125,-0.01878146,0,0.02239848,-0.00275,0.006318991,0,0.03730959,-0.00928125,-0.006278908,0,0.007046603
462.3381,575.5671,697.7754,1273.343,29.5423,-0.03729687,-0.01391671,0,0.06469456,-0.03901562,-0.02050775,0,0.02251786,-0.02079687,-0.01422716,0,0.0372561,-0.00653125,-0.003237387,0,0.007039333
462.339,575.5671,697.7754,1273.343,29.5423,-0.04503125,-0.01829524,0,0.06462783,-0.03609375,-0.01739629,0,0.02265216,-0.0165,-0.007494469,0,0.0372098,-0.009453125,-0.00636682,0,0.007032413
462.3399,575.5671,697.7754,1273.032,29.52758,-0.07596875,-0.0516159,0,0.0645647,-0.033,-0.01470238,0,0.02277154,-0.01959375,-0.01218677,0,0.03716493,-0.00825,-0.005532631,0,0.007026616
462.3408,575.5671,697.1541,1272.721,29.51285,-0.1280469,-0.1020367,0,0.06449909,-0.03059375,-0.0127229,0,0.02290584,-0.01873437,-0.008855336,0,0.03712504,-0.006875,-0.003804902,0,0.007022632
462.3417,576.1867,696.5328,1272.719,29.51277,-0.1739375,-0.1484248,0,0.0644239,-0.02784375,-0.0096,0,0.02302522,-0.008078125,-0.001217133,0,0.03709719,-0.0103125,-0.008155508,0,0.007020435
462.3426,575.5671,695.9115,1271.479,29.45396,-0.198,-0.1727109,0,0.06432815,-0.02457812,-0.007909379,0,0.02315952,-0.01254687,-0.001173727,0,0.0370754,-0.01134375,-0.008230041,0,0.007017579
462.3435,574.9475,695.2902,1270.238,29.39516,-0.1888906,-0.1633721,0,0.06420278,-0.02389062,-0.005841196,0,0.02329382,0.00034375,0.006225368,0,0.03705411,-0.006875,-0.005369676,0,0.007015578
462.3444,574.9475,695.2902,1270.238,29.39516,-0.1538281,-0.128497,0,0.06405206,-0.022,-0.006409802,0,0.02342812,-0.01615625,-0.003913032,0,0.03703317,-0.01065625,-0.00745467,0,0.007014662
462.3453,575.5671,695.2902,1270.857,29.42452,-0.1081094,-0.08361537,0,0.06388561,-0.02904687,-0.01176978,0,0.02356242,-0.03592187,-0.03045517,0,0.03701242,-0.01546875,-0.01445615,0,0.007014478
462.3462,576.1867,694.6689,1270.856,29.42444,-0.0446875,-0.01942502,0,0.06371168,-0.02595312,-0.01099086,0,0.02371164,-0.03695312,-0.02492402,0,0.03698989,-0.0199375,-0.01698983,0,0.00701362
462.3471,575.5671,694.6689,1270.236,29.39507,0.01151563,0.03524438,0,0.06353902,-0.02492187,-0.009008142,0,0.02384594,0.02423438,0.02965377,0,0.03696656,-0.01357812,-0.01247434,0,0.007011444
462.348,575.5671,694.6689,1270.236,29.39507,0.0034375,0.0273669,0,0.06336748,-0.02320312,-0.008606737,0,0.02399516,0.08095313,0.09241323,0,0.03694246,-0.009625,-0.007496891,0,0.007009282
462.3489,575.5671,694.6689,1270.547,29.4098,-0.04142187,-0.01765708,0,0.06319627,-0.0144375,-5.78E-05,0,0.02412946,0.1149844,0.1199841,0,0.0369005,-0.002234375,-0.000516562,0,0.00700728
462.3498,575.5671,695.2902,1270.857,29.42452,-0.070125,-0.04845991,0,0.06302568,-0.004640625,0.009434615,0,0.02427869,0.06582813,0.0766475,0,0.03682802,0.002921875,0.004083183,0,0.007005823
462.3507,575.5671,695.2902,1270.857,29.42452,-0.0584375,-0.03486692,0,0.06285778,0.00378125,0.01684858,0,0.02441299,-0.02423437,-0.01960491,0,0.03674373,0.0061875,0.008393361,0,0.007004394
462.3516,574.9475,694.6689,1269.616,29.36571,-0.01770312,0.002352064,0,0.06269379,0.01323438,0.02649891,0,0.02456221,-0.05603125,-0.04693259,0,0.03665905,0.01392188,0.01467235,0,0.00700221
462.3525,574.3279,694.6689,1268.997,29.33634,-0.00378125,0.01805032,0,0.06253204,0.02079688,0.03279004,0,0.02471143,-0.02595312,-0.02030432,0,0.03657121,0.01014063,0.01222069,0,0.006997632
462.3534,574.3279,693.4264,1267.754,29.27746,0.00034375,0.02016286,0,0.06237163,0.02389063,0.03623829,0,0.02486065,-0.04795312,-0.0424954,0,0.03649133,0.008421875,0.009449491,0,0.006992019
462.3543,574.3279,693.4264,1267.754,29.27746,0.000171875,0.01907004,0,0.062214,0.03128125,0.04228975,0,0.02500988,-0.05139062,-0.0433305,0,0.03641188,0.007046875,0.008660524,0,0.006986296
462.3552,574.3279,693.4264,1267.754,29.27746,-0.00034375,0.01943509,0,0.062069,0.03334375,0.04481423,0,0.0251591,-0.003953125,-0.002861289,0,0.03633045,0.00275,0.004200482,0,0.006980515
462.3561,573.7083,693.4264,1267.135,29.24809,-0.00034375,0.01633445,0,0.06194001,0.0295625,0.03972425,0,0.0252934,0.001203125,0.01098448,0,0.03625236,0.001375,0.002787063,0,0.00697536
462.357,574.3279,692.8051,1267.133,29.24801,-0.00584375,0.01237688,0,0.06182011,0.02629688,0.03682959,0,0.0254277,0.01048438,0.009059882,0,0.03617969,0.0020625,0.003658745,0,0.006970637
462.3579,574.3279,692.8051,1267.443,29.26269,0.01392188,0.03022146,0,0.06170545,0.02217188,0.03178636,0,0.02554708,-0.004296875,0.004379212,0,0.03611001,0.0061875,0.007756574,0,0.006966496
462.3588,574.9475,692.8051,1267.753,29.27737,0.01220313,0.02743307,0,0.06159143,0.00859375,0.0180902,0,0.02566645,-0.00790625,-0.008910178,0,0.03604099,0.004984375,0.00668475,0,0.00696228
462.3597,575.5671,693.4264,1268.994,29.33619,-0.01976562,-0.003134115,0,0.06147665,0.002578125,0.0118714,0,0.02580075,-0.04382812,-0.03865784,0,0.03598648,-0.00275,-0.00109854,0,0.006957741
462.3606,574.9475,693.4264,1268.374,29.30682,-0.02028125,-0.007389374,0,0.06136187,0.00378125,0.01244165,0,0.02592013,-0.05414062,-0.05342828,0,0.03593818,-0.00275,-0.00060851,0,0.006953248
462.3615,574.9475,693.4264,1268.374,29.30682,-0.009796875,0.005767936,0,0.06124688,-0.0020625,0.006776854,0,0.02603951,-0.03523437,-0.03338092,0,0.03588404,-0.0020625,-0.00056323,0,0.006948754
462.3624,574.9475,693.4264,1268.374,29.30682,-0.00515625,0.007684269,0,0.06113175,-0.009796875,-0.001385112,0,0.02615889,-0.01014062,-0.008947425,0,0.03583074,-0.00584375,-0.003102725,0,0.006944347
462.3633,574.3279,693.4264,1267.754,29.27746,-0.008421875,0.004352287,0,0.06101658,-0.01392187,-0.005860566,0,0.02627827,0.03282813,0.03344606,0,0.0357799,-0.00378125,-0.002234821,0,0.006940161
462.3642,573.7083,692.8051,1266.513,29.21865,0.007390625,0.02155339,0,0.06090196,-0.0165,-0.007773147,0,0.02639764,0.05878125,0.0586331,0,0.03572764,-0.00275,0.000213896,0,0.006936864
462.3651,573.7083,692.8051,1266.513,29.21865,0.04107813,0.05144993,0,0.06078819,-0.023375,-0.01608349,0,0.02651702,0.01821875,0.01905587,0,0.03567091,0.0048125,0.006958974,0,0.006934678
462.366,573.7083,692.1838,1265.892,29.1892,0.05723438,0.07166033,0,0.06067341,-0.03523437,-0.02614507,0,0.0266364,-0.01426562,-0.01598218,0,0.03561677,0.003609375,0.006386914,0,0.006933269
462.3669,573.7083,692.1838,1265.582,29.17448,0.06617188,0.07656274,0,0.06055539,-0.03626562,-0.02918908,0,0.02675578,-0.01203125,-0.01146715,0,0.03556504,-0.00171875,0.001202148,0,0.006932379
462.3678,573.7083,691.5625,1265.271,29.15975,0.05775,0.07051877,0,0.06043213,-0.04382812,-0.03474795,0,0.02687516,6.25E-16,-0.001724763,0,0.03551478,-0.0020625,0.00073549,0,0.006931757
462.3687,573.7083,690.9412,1264.65,29.13031,0.06720313,0.07948289,0,0.06030408,-0.0495,-0.04192558,0,0.02697961,0.01323438,0.01208406,0,0.03546548,-0.006359375,-0.003175262,0,0.006931428
462.3696,573.7083,690.9412,1264.65,29.13031,0.059125,0.0701466,0,0.06017304,-0.05173437,-0.04291266,0,0.02708407,0.0213125,0.02115685,0,0.03541662,-0.008765625,-0.005293875,0,0.006931557
462.3705,574.9475,690.3199,1265.267,29.1596,0.02028125,0.03395454,0,0.06004358,-0.04692187,-0.03848634,0,0.02718852,0.01890625,0.01543852,0,0.0353667,-0.007046875,-0.004196256,0,0.006931517
462.3714,574.9475,689.6986,1264.646,29.13015,0.006703125,0.01801281,0,0.0599175,-0.04314062,-0.03438588,0,0.02729298,0.02560938,0.02727709,0,0.03531719,-0.00653125,-0.002103178,0,0.006931321
462.3723,574.9475,689.6986,1264.646,29.13015,-0.02303125,-0.009554346,0,0.05979569,-0.04314062,-0.03386481,0,0.02738251,0.0446875,0.03971618,0,0.03526872,-0.00275,-0.000186129,0,0.006931833
462.3732,575.5671,689.6986,1265.266,29.15952,-0.05585937,-0.04250117,0,0.05967718,-0.0378125,-0.02872647,0,0.02747205,0.02440625,0.02713467,0,0.03521978,-0.00928125,-0.004364309,0,0.006933186
462.3741,575.5671,689.0774,1264.645,29.13007,-0.05740625,-0.04429794,0,0.05955648,-0.03592187,-0.025867,0,0.02756158,0.03454688,0.02933668,0,0.0351701,-0.007390625,-0.004502011,0,0.006934566
462.375,574.9475,688.4561,1263.404,29.07126,-0.04176562,-0.02669857,0,0.05943313,-0.04090625,-0.0312262,0,0.02765111,0.02217188,0.02525238,0,0.0351197,-0.006015625,-0.001331928,0,0.006936062
462.3759,574.9475,688.4561,1263.404,29.0713,-0.01357812,0.000872131,0,0.05930926,-0.044,-0.03310272,0,0.02772572,0.008078125,0.003461575,0,0.03506896,-0.008078125,-0.004394997,0,0.006937733
462.3768,574.3279,689.0774,1263.405,29.07134,-0.01082812,0.004492191,0,0.05918672,-0.04898437,-0.03856827,0,0.02781526,0.01203125,0.01511731,0,0.03501928,-0.01082812,-0.006689025,0,0.006939365
462.3777,574.3279,688.4561,1262.784,29.04189,-0.03660937,-0.01927622,0,0.05906648,-0.05551562,-0.04373308,0,0.02788987,0.02423438,0.02098808,0,0.03496956,-0.0089375,-0.004543072,0,0.006940554
462.3786,573.7083,687.2135,1260.922,28.95365,-0.07923437,-0.06403311,0,0.05894978,-0.04039062,-0.02903185,0,0.02796448,-0.01839062,-0.01605349,0,0.03492032,-0.00446875,-0.000698995,0,0.006941556
462.3795,573.7083,687.2135,1260.922,28.95365,-0.1356094,-0.1156277,0,0.05883131,-0.015125,-0.002533549,0,0.02802417,-0.045375,-0.04583112,0,0.03487289,-0.004296875,0.000396214,0,0.006942707
462.3804,574.3279,687.8348,1262.163,29.01245,-0.1277031,-0.1114413,0,0.05869701,0.01375,0.02627293,0,0.02809878,-0.04021875,-0.04006968,0,0.03482105,-0.00584375,-0.002173146,0,0.006944105
462.3813,574.3279,687.8348,1262.163,29.01245,-0.09092187,-0.06951401,0,0.05855325,0.0433125,0.05668306,0,0.02817339,-0.0460625,-0.04206721,0,0.034766,-0.00859375,-0.003946259,0,0.006945537
462.3822,574.9475,687.2135,1262.161,29.01237,-0.05534375,-0.03685002,0,0.05840731,0.06771875,0.08142966,0,0.02823308,-0.07029687,-0.07329548,0,0.03470825,-0.00584375,-0.002167608,0,0.006946825
462.3831,575.5671,687.2135,1262.781,29.04174,-0.04073437,-0.01843588,0,0.05825996,0.07734375,0.09162797,0,0.02826293,-0.06926562,-0.06062654,0,0.03463848,0.000515625,0.004956749,0,0.006948204
462.384,575.5671,687.8348,1263.402,29.07118,-0.03729687,-0.01672472,0,0.05811354,0.06857813,0.08331043,0,0.02829277,-0.000171875,-0.005162357,0,0.03456242,0.004984375,0.008640456,0,0.006949516
462.3849,575.5671,687.8348,1263.712,29.08586,-0.02217187,0.001572729,0,0.05797488,0.05396875,0.06929051,0,0.02827785,-0.00034375,0.01069863,0,0.03449213,-0.002921875,0.001219122,0,0.006950183
462.3858,576.1867,687.8348,1264.021,29.10055,0.00653125,0.02825757,0,0.05784795,0.04107813,0.05676758,0,0.02826293,-0.008078125,-0.01195187,0,0.03442226,-0.007734375,-0.004134598,0,0.006951036
462.3867,576.1867,687.8348,1264.021,29.10055,-0.00584375,0.01987679,0,0.05772608,0.02217188,0.03838877,0,0.028248,-0.04434375,-0.03426815,0,0.03435344,-0.003953125,-0.000213929,0,0.006951791
462.3876,574.9475,687.8348,1262.782,29.04181,-0.02492187,-0.002502199,0,0.05760545,0.0034375,0.02024261,0,0.02821816,-0.02698437,-0.02687575,0,0.03428679,-0.001203125,0.002325626,0,0.006952546
462.3885,574.3279,688.4561,1262.784,29.04189,-0.04107812,-0.01386329,0,0.05748512,-0.008765625,0.007989565,0,0.02818831,-0.008421875,-0.001185152,0,0.03422192,-0.00275,0.000511841,0,0.006953241
462.3894,574.3279,688.4561,1262.784,29.04189,-0.03385937,-0.01029399,0,0.05736456,-0.02371875,-0.005641811,0,0.02815847,-0.00034375,0.004149026,0,0.03415949,-0.004125,-0.000727396,0,0.00695412
462.3903,574.9475,687.8348,1262.782,29.04181,-0.01598437,0.01153795,0,0.05724367,-0.03575,-0.01867534,0,0.02814355,-0.00275,0.002463014,0,0.03410059,-0.00275,5.43939E-05,0,0.0069552
462.3912,574.3279,687.8348,1262.163,29.01245,0.007734375,0.03308015,0,0.05712355,-0.04348437,-0.02429294,0,0.0281137,0.011,0.01788137,0,0.03404439,-0.001546875,0.001568145,0,0.006956336
462.3921,574.3279,689.0774,1263.405,29.07134,0.01615625,0.04292734,0,0.05700971,-0.0474375,-0.02995142,0,0.02808386,0.02560938,0.0309792,0,0.03398999,-0.0020625,0.000423735,0,0.006957615
462.393,574.3279,689.0774,1263.405,29.07134,0.0075625,0.0347284,0,0.05690447,-0.05792187,-0.0380809,0,0.02805401,0.01392188,0.02104292,0,0.0339472,-0.0048125,-0.002200926,0,0.006958893
462.3939,574.3279,689.0774,1263.404,29.0713,-0.02028125,0.005393197,0,0.05680421,-0.05534375,-0.03721298,0,0.02802417,0.01220313,0.01880412,0,0.03392829,-0.00584375,-0.003493202,0,0.006960232
462.3948,574.9475,688.4561,1263.404,29.07126,-0.0350625,-0.006806791,0,0.05670575,-0.04915625,-0.02917706,0,0.02799432,0.02732813,0.03440405,0,0.0339188,-0.0055,-0.003535538,0,0.006961487
462.3957,575.5671,688.4561,1264.023,29.10063,-0.02423437,0.000593497,0,0.05660962,-0.03901562,-0.02014059,0,0.02794956,0.02664063,0.03342971,0,0.03390941,-0.00515625,-0.002906096,0,0.006962867
462.3966,574.9475,689.0774,1264.025,29.10071,-0.0405625,-0.01236298,0,0.0565254,-0.02732812,-0.007564278,0,0.02791971,0.01185938,0.02026121,0,0.03390244,-0.004125,-0.00267467,0,0.006964409
462.3975,574.3279,690.3199,1264.648,29.13024,-0.04915625,-0.02478363,0,0.05646217,-0.015125,0.004355947,0,0.02787495,0.0130625,0.01821033,0,0.03390405,0.001375,0.00327283,0,0.006966186
462.3984,574.9475,690.9412,1265.889,29.18904,-0.0446875,-0.01761607,0,0.05641001,-0.00721875,0.01219131,0,0.0278451,0.007046875,0.01778728,0,0.03391263,0.008421875,0.009760947,0,0.006967992
462.3993,575.5671,691.5625,1267.13,29.24785,-0.03145312,-0.007319375,0,0.05636131,-0.004125,0.01561655,0,0.02781526,-0.00378125,-0.000720455,0,0.0339211,0.00378125,0.004970917,0,0.006968816
462.4002,573.7083,692.1838,1265.892,29.1892,-0.01632812,0.008855338,0,0.05631608,-0.007390625,0.01170834,0,0.02778541,-0.02217187,-0.0100772,0,0.03393064,-0.00034375,0.001203756,0,0.006969361
462.4011,573.7083,692.1838,1265.892,29.1892,0.000171875,0.02405823,0,0.0562724,-0.01375,0.00575533,0,0.02777049,-0.004640625,-0.002090285,0,0.03394446,0.00240625,0.002870724,0,0.006970089
462.402,573.7083,691.5625,1265.271,29.15975,0.009796875,0.03258055,0,0.05622785,-0.01890625,2.38E-05,0,0.02774065,-0.02182812,-0.01078405,0,0.03396525,0.00171875,0.003306428,0,0.006971279
462.4029,573.7083,691.5625,1264.96,29.14503,0.01254688,0.03605993,0,0.0561832,-0.02870312,-0.009950798,0,0.02772572,-0.01375,-0.009675789,0,0.03398783,0.0048125,0.005105178,0,0.006972349
462.4038,573.7083,690.9412,1264.65,29.13031,0.0171875,0.03729203,0,0.05614086,-0.03678125,-0.01797999,0,0.02769588,0.01014063,0.01838725,0,0.03401107,0.0034375,0.00446679,0,0.006973285
462.4047,574.3279,691.5625,1265.89,29.18912,0.03471875,0.0575256,0,0.05610013,-0.03575,-0.01803075,0,0.02768096,0.02698438,0.03305267,0,0.03403629,0.00309375,0.003958173,0,0.006974571
462.4056,574.3279,692.8051,1267.133,29.24801,0.06084375,0.0784401,0,0.05605572,-0.03385937,-0.01547177,0,0.02765111,6.25E-16,0.005749137,0,0.03406078,0.006359375,0.006414138,0,0.006976189
462.4065,574.9475,693.4264,1268.374,29.30682,0.05001563,0.0713751,0,0.05600258,-0.0309375,-0.01414438,0,0.02763619,-0.03935937,-0.03270271,0,0.03408685,6.25278E-16,0.001658416,0,0.006977758
462.4074,574.9475,693.4264,1268.374,29.30682,0.04348438,0.05928936,0,0.05594364,-0.02578125,-0.00837379,0,0.02762127,-0.03179687,-0.026982,0,0.03411102,-0.0034375,-0.004025418,0,0.006979542
462.4083,574.9475,693.4264,1268.374,29.30682,0.03334375,0.05229628,0,0.05588708,-0.01770312,-0.001538009,0,0.02759142,-0.015125,-0.009563181,0,0.03413457,-0.000171875,0.001746902,0,0.006981565
462.4092,575.5671,694.6689,1270.236,29.39507,0.03025,0.04509432,0,0.05583112,-0.01839062,-0.00247946,0,0.0275765,-0.01821875,-0.01321759,0,0.034162,0.00240625,0.002075938,0,0.006983765
462.4101,576.8063,694.6689,1271.475,29.45381,0.01890625,0.03489589,0,0.05577225,-0.01392187,0.001734668,0,0.02756158,-0.01375,-0.009932655,0,0.03419406,-0.007734375,-0.006298917,0,0.00698604
462.411,576.8063,695.2902,1272.097,29.48325,-0.02560937,-0.01139522,0,0.05571357,-0.004125,0.01011267,0,0.02754666,-0.00928125,-0.004087929,0,0.03422872,-0.00515625,-0.004546906,0,0.006987948
462.4119,576.8063,695.2902,1272.098,29.48333,-0.1087969,-0.09551767,0,0.05565777,-0.01014062,0.004832609,0,0.02753174,6.25E-16,0.002326667,0,0.03426444,-0.01014062,-0.009362615,0,0.006990011
462.4128,575.5671,696.5328,1272.1,29.4834,-0.1572656,-0.1438916,0,0.05559312,-0.01357812,-0.00089996,0,0.02751681,-0.001375,0.003661339,0,0.03430154,-0.01959375,-0.01810379,0,0.006992215
462.4137,575.5671,696.5328,1272.1,29.4834,-0.130625,-0.1193455,0,0.0555064,-0.01375,0.000248931,0,0.02750189,-0.009453125,-0.008316937,0,0.03434047,-0.007734375,-0.007096957,0,0.006992626
462.4146,575.5671,696.5328,1272.1,29.4834,-0.0886875,-0.07632633,0,0.05541039,-0.01495312,-0.003647781,0,0.02748697,-0.009796875,-0.005142417,0,0.03438006,-0.00240625,-0.000567253,0,0.006994095
462.4155,575.5671,695.9115,1271.479,29.45396,-0.06582812,-0.05598161,0,0.05531373,-0.02165625,-0.00886186,0,0.02747205,0.003609375,0.00388111,0,0.03441971,-0.003953125,-0.002814472,0,0.006996229
462.4164,575.5671,696.5328,1272.1,29.4834,-0.06325,-0.05167485,0,0.05521537,-0.02028125,-0.0101319,0,0.02747205,-0.006015625,-0.002169688,0,0.03445946,-0.00103125,0.000794323,0,0.0069991
462.4173,575.5671,696.5328,1272.1,29.4834,-0.05104687,-0.04230844,0,0.05511428,-0.01615625,-0.004778897,0,0.02745712,-0.0055,-0.005234815,0,0.03449939,-0.001546875,0.000322054,0,0.007003091
462.4182,576.1867,697.1541,1273.341,29.54222,-0.01735937,-0.00619677,0,0.0550115,-0.006359375,0.002940866,0,0.0274422,0.0048125,0.006930726,0,0.03454052,0.001890625,0.003791014,0,0.00700726
462.4191,576.8063,696.5328,1273.339,29.54214,0.0213125,0.0295097,0,0.05491318,-0.004984375,0.004804431,0,0.0274422,0.02114063,0.02243809,0,0.03458313,0.008078125,0.0105169,0,0.007011338
462.42,576.8063,696.5328,1273.339,29.54214,0.0158125,0.02664505,0,0.05482522,0.001546875,0.01024452,0,0.02742728,0.0226875,0.02265766,0,0.03462463,0.0055,0.007762091,0,0.007014518
462.4209,576.8063,696.5328,1273.029,29.52746,-0.00653125,0.002057892,0,0.05474565,0.01357813,0.02190661,0,0.02742728,0.01478125,0.01705449,0,0.03466505,0.00309375,0.005881721,0,0.007017573
462.4218,576.1867,696.5328,1272.719,29.51277,-0.01821875,-0.00776762,0,0.05467111,0.02114063,0.02916694,0,0.02742728,0.0171875,0.01618784,0,0.0347082,0.00515625,0.007982012,0,0.007020666
462.4227,576.8063,696.5328,1273.339,29.54214,-0.0048125,0.004939825,0,0.05459877,0.020625,0.02800735,0,0.02741236,0.008421875,0.01003374,0,0.03475797,0.003609375,0.006630045,0,0.007024203
462.4236,577.4259,697.7754,1275.201,29.63039,-0.0055,0.005017156,0,0.05453666,0.0158125,0.02290747,0,0.02741236,-0.0213125,-0.02108565,0,0.03480934,-0.0020625,0.001431053,0,0.007029284
462.4245,576.8063,697.7754,1274.582,29.60103,-0.0323125,-0.02132827,0,0.05450327,0.01220313,0.01915322,0,0.02739744,-0.06325,-0.06393692,0,0.03486072,-0.00584375,-0.002699892,0,0.007035662
462.4254,576.8063,697.7754,1274.582,29.60103,-0.05482812,-0.04314617,0,0.0545147,0.004984375,0.01122628,0,0.02739744,-0.05620312,-0.05372125,0,0.03490283,-0.00825,-0.003998152,0,0.007042943
462.4263,576.8063,697.7754,1274.582,29.60103,-0.05775,-0.04590254,0,0.05457364,-0.00309375,0.003466549,0,0.02738251,-0.01770312,-0.02018053,0,0.03494054,-0.01134375,-0.008170077,0,0.007051097
462.4272,577.4259,697.7754,1275.201,29.63039,-0.04451562,-0.03056702,0,0.05465883,-0.0075625,-0.001554274,0,0.02736759,-0.02045312,-0.01714165,0,0.03498435,-0.01323437,-0.008257948,0,0.007059514
462.4281,578.0455,697.7754,1275.821,29.65976,-0.01753125,-0.0047982,0,0.0547537,-0.01907812,-0.01315692,0,0.02736759,0.0006875,-0.001107169,0,0.03503224,-0.0006875,0.002635299,0,0.007067771
462.429,577.4259,697.7754,1275.201,29.63039,0.00378125,0.02026527,0,0.05485178,-0.02664062,-0.02022478,0,0.02738251,0.01667188,0.01856994,0,0.03508241,0.00309375,0.008426566,0,0.007076657
462.4299,577.4259,697.7754,1275.511,29.64508,0.02114063,0.03562163,0,0.05494922,-0.0295625,-0.02414351,0,0.02738251,0.0144375,0.01510738,0,0.03513353,-0.0020625,0.001864424,0,0.007086936
462.4308,578.0455,697.7754,1275.821,29.65976,0.02028125,0.03875748,57.82912,0.05504582,-0.04348437,-0.03662434,40.50841,0.02741236,0.015125,0.01535739,98.60547,0.03518517,-0.008078125,-0.00304419,55.20216,0.007099095
462.4317,578.6651,699.018,1277.683,29.74802,0.03265625,0.05003418,57.82912,0.05514642,-0.05139062,-0.0457085,40.50841,0.02742728,0.03729688,0.03950435,98.60547,0.03523797,-0.007390625,-0.002325984,55.20216,0.007113165
462.4326,578.6651,698.3967,1277.062,29.71857,0.04279688,0.06274924,57.82912,0.05525986,-0.05104687,-0.0441392,40.50841,0.02745712,0.0708125,0.07150854,98.60547,0.03529059,-0.00653125,-0.002271961,55.20216,0.007129921
462.4335,579.2847,697.7754,1277.06,29.71848,0.02578125,0.04658024,57.82912,0.05538593,-0.044,-0.03722695,40.50841,0.02747205,0.06325,0.06483513,98.60547,0.03533332,-0.009796875,-0.003534082,55.20216,0.00714789
462.4344,579.2847,699.018,1278.303,29.77738,0.00378125,0.02538987,57.82912,0.05552451,-0.03867187,-0.0318187,40.50841,0.02750189,0.00034375,0.003138103,98.60547,0.03536721,-0.007734375,-0.004042937,55.20216,0.007166104
462.4353,578.6651,699.6392,1278.304,29.77745,0.01117188,0.03498742,57.82912,0.05567725,-0.02767187,-0.01952653,40.50841,0.02751681,-0.07579687,-0.07502272,98.60547,0.03540466,-0.006875,-0.000120361,55.20216,0.007184476
462.4362,578.0455,699.018,1277.063,29.71865,0.02354688,0.04747988,57.82912,0.0558458,-0.0075625,-0.000310608,40.50841,0.02753174,-0.0776875,-0.07405804,98.60547,0.03544977,-0.00275,0.001204675,55.20216,0.007203072
462.4371,576.8063,699.6392,1276.446,29.68936,0.01632813,0.04242932,57.82912,0.0560303,-0.00103125,0.008364898,40.50841,0.02754666,-0.02475,-0.02227333,98.60547,0.03549085,-0.009109375,-0.002878458,55.20216,0.0072217
462.438,576.8063,699.6392,1276.446,29.68936,0.03317188,0.0597915,57.82912,0.05622215,0.01460938,0.02280624,40.50841,0.02756158,-0.0460625,-0.04432777,98.60547,0.03553103,-0.007390625,-0.002497279,55.20216,0.007240434
462.4389,576.8063,699.6392,1276.134,29.6746,0.0611875,0.08931961,57.82912,0.05641142,0.02990625,0.04052465,40.50841,0.0275765,-0.07871875,-0.07247083,98.60547,0.03556724,-0.01151562,-0.00621946,55.20216,0.007259585
462.4398,577.4259,698.3967,1275.822,29.65983,0.04210938,0.07106623,57.82912,0.05659149,0.02509375,0.03452254,40.50841,0.02759142,-0.03540625,-0.03623844,98.60547,0.03559408,-0.01959375,-0.01397851,55.20216,0.007279047
462.4407,576.8063,697.7754,1274.582,29.60103,-0.01925,0.01099792,57.82912,0.05676671,0.01426563,0.02615662,40.50841,0.02759142,0.02595313,0.03489584,98.60547,0.0356261,-0.02371875,-0.01882135,55.20216,0.007296894
462.4416,576.1867,697.1541,1273.341,29.54222,-0.0735625,-0.04285891,57.82912,0.05694453,0.01907813,0.03004109,40.50841,0.02760635,0.09882813,0.09791051,98.60547,0.03565657,-0.02371875,-0.01829059,55.20216,0.007311018
462.4425,576.1867,697.1541,1273.341,29.54222,-0.1008906,-0.06875681,57.82912,0.05712674,0.02646875,0.03941738,40.50841,0.02762127,0.06651563,0.07484811,98.60547,0.03566784,-0.0048125,0.000460039,55.20216,0.007321667
462.4434,576.8063,697.7754,1274.582,29.60103,-0.1146406,-0.08234516,57.82912,0.05731724,0.03660938,0.04963048,40.50841,0.02762127,0.01942188,0.02139158,98.60547,0.03566884,0.01048438,0.0151354,55.20216,0.007332819
462.4443,576.8063,697.1541,1273.96,29.57158,-0.1165312,-0.08336903,57.82912,0.05751838,0.03660938,0.05025496,40.50841,0.02763619,-0.004125,0.001418089,98.60547,0.03566887,0.00721875,0.01290718,55.20216,0.007341977
462.4452,576.8063,696.5328,1273.339,29.54214,-0.0804375,-0.0465108,57.82912,0.05772798,0.03523438,0.0505422,40.50841,0.02763619,-0.01426562,-0.008804893,98.60547,0.03567262,0.01082813,0.0149904,55.20216,0.00734991
462.4461,576.8063,696.5328,1273.339,29.54214,-0.02303125,0.01035573,57.82912,0.0579456,0.02921875,0.04373528,40.50841,0.02762127,0.005328125,0.008655902,98.60547,0.03567923,0.01185938,0.01730071,55.20216,0.007355798
462.447,576.8063,697.1541,1273.96,29.57158,0.02028125,0.05530701,57.82912,0.05816718,0.00240625,0.01941069,40.50841,0.02760635,6.25E-16,0.007198674,98.60547,0.03568944,0.01409375,0.01835402,55.20216,0.007359902
462.4479,576.8063,697.1541,1273.651,29.5569,0.03729688,0.07088049,57.82912,0.05838414,-0.02010937,-0.003911776,40.50841,0.02759142,-0.02096875,-0.0178974,98.60547,0.03570023,0.012375,0.01714074,55.20216,0.007362565
462.4488,576.1867,697.1541,1273.341,29.54222,0.01460938,0.04935361,57.82912,0.05859434,-0.03935937,-0.02162488,40.50841,0.02759142,-0.007390625,-0.000545052,98.60547,0.03572468,0.007390625,0.0117358,55.20216,0.007363275
462.4497,574.9475,697.1541,1272.102,29.48349,-0.02165625,0.01253774,57.82912,0.05880107,-0.05259375,-0.03418243,40.50841,0.0275765,0.009625,0.01375551,98.60547,0.03576694,0.003609375,0.008005978,55.20216,0.007362931
462.4506,573.7083,697.1541,1270.862,29.42476,-0.04915625,-0.01600849,57.82912,0.05900725,-0.06290625,-0.04467552,40.50841,0.02756158,0.001890625,0.007518682,98.60547,0.03582489,-0.00378125,0.000107898,55.20216,0.007361899
462.4515,573.7083,696.5328,1270.241,29.39531,-0.05998437,-0.02543254,57.82912,0.05921425,-0.06892187,-0.04891904,40.50841,0.02753174,0.007046875,0.01213894,98.60547,0.03588955,-0.00721875,-0.002740911,55.20216,0.007361129
462.4524,573.7083,695.9115,1269.62,29.36587,-0.05396875,-0.02268004,57.82912,0.05942057,-0.06307812,-0.04358182,40.50841,0.02750189,0.000515625,0.005353425,98.60547,0.03595449,-0.006359375,-0.003155156,55.20216,0.007361021
462.4533,574.9475,695.2902,1270.238,29.39516,-0.06153125,-0.02796567,57.82912,0.05962617,-0.06754687,-0.04727206,40.50841,0.02747205,-0.0020625,0.002906643,98.60547,0.03602183,-0.01460937,-0.01019097,55.20216,0.007362215
462.4542,574.9475,694.6689,1269.616,29.36571,-0.1012344,-0.07133872,57.82912,0.05983267,-0.06771875,-0.0462522,40.50841,0.0274422,0.01804688,0.02307322,98.60547,0.03609015,-0.01357812,-0.0106475,55.20216,0.007364024
462.4551,573.7083,694.6689,1268.377,29.30698,-0.1753125,-0.1441548,57.82912,0.06003342,-0.05207812,-0.03216619,40.50841,0.02739744,0.03764063,0.04137077,98.60547,0.03615936,-0.0144375,-0.01062167,55.20216,0.00736568
462.456,573.7083,694.0477,1267.756,29.27753,-0.1837344,-0.1552575,57.82912,0.0602066,-0.04554687,-0.02261401,40.50841,0.02735267,0.03334375,0.03908274,98.60547,0.03622675,-0.0144375,-0.01132364,55.20216,0.007366559
462.4569,573.7083,694.0477,1268.376,29.30694,-0.1313125,-0.1028585,57.82912,0.06034771,-0.031625,-0.01145641,40.50841,0.0273079,0.02870313,0.03098998,98.60547,0.03629067,-0.0116875,-0.008684052,55.20216,0.007366206
462.4578,574.3279,694.6689,1268.997,29.33634,-0.09315625,-0.06713765,57.82912,0.06047486,-0.02285937,4.62E-05,40.50841,0.02727806,0.0433125,0.04919486,98.60547,0.03635251,-0.0144375,-0.01120119,55.20216,0.007365164
462.4587,574.3279,694.6689,1268.997,29.33634,-0.06084375,-0.0345197,57.82912,0.06059603,-0.01735937,0.004025262,40.50841,0.02723329,-0.00034375,0.001340394,98.60547,0.03640914,-0.01254687,-0.0100569,55.20216,0.007362887
462.4596,574.3279,694.0477,1268.376,29.3069,-0.02939062,-0.007070016,57.82912,0.06071611,-0.01667187,0.005045038,40.50841,0.02720345,-0.1191094,-0.1142634,98.60547,0.03646648,-0.008421875,-0.005420986,55.20216,0.007359841
462.4605,574.3279,694.0477,1268.376,29.3069,-0.03179687,-0.007341716,57.82912,0.06083748,-0.01340625,0.009189472,40.50841,0.0271736,-0.09470312,-0.09284859,98.60547,0.03649709,-0.0055,-0.003193878,55.20216,0.007356728
462.4614,573.7083,694.0477,1267.756,29.27753,-0.017875,0.00040578,57.82912,0.06096048,-0.00653125,0.014053,40.50841,0.02712883,-0.02285937,-0.01936999,98.60547,0.03651137,-0.002921875,-0.000316871,55.20216,0.007353537
462.4623,572.4691,694.0477,1266.517,29.21881,-0.0089375,0.01309356,57.82912,0.06108512,-0.006875,0.0157732,40.50841,0.02709899,-0.05379687,-0.05216324,98.60547,0.03652797,-0.00171875,0.00046142,55.20216,0.007350438
462.4632,572.4691,693.4264,1265.896,29.18936,0.004984375,0.01972282,57.82912,0.06121055,0.000859375,0.02113505,40.50841,0.02705422,-0.04571875,-0.04273666,98.60547,0.03654005,0.002578125,0.004844373,55.20216,0.007347409
462.4641,571.8495,692.8051,1264.655,29.13055,0.01529688,0.0341197,57.82912,0.06133527,0.00309375,0.02447413,40.50841,0.02702438,0.008421875,0.008733267,98.60547,0.03654861,0.007390625,0.009434543,55.20216,0.007344196
462.465,571.8495,692.1838,1264.033,29.10111,0.03557813,0.04733684,57.82912,0.06146012,-0.00309375,0.01735316,40.50841,0.02697961,-0.01546875,-0.01210782,98.60547,0.03655892,0.007390625,0.009317846,55.20216,0.007340256
462.4659,571.8495,692.1838,1263.413,29.0717,0.0433125,0.05847035,57.82912,0.06158769,-0.01460937,0.004975177,40.50841,0.02694977,-0.04348437,-0.04479378,98.60547,0.03657485,0.01082813,0.01281226,55.20216,0.007335749
462.4668,571.2299,691.5625,1262.792,29.0423,0.05723438,0.06649323,57.82912,0.06171628,-0.02354687,-0.003343886,40.50841,0.026905,-0.05173437,-0.04832173,98.60547,0.03658747,0.0103125,0.01188782,55.20216,0.007329926
462.4677,571.8495,691.5625,1263.412,29.07167,0.04726563,0.05843419,57.82912,0.06184388,-0.02182812,-0.003713341,40.50841,0.02686023,-0.03592187,-0.03793582,98.60547,0.03659629,0.00378125,0.005668498,55.20216,0.007322792
462.4686,572.4691,690.9412,1263.41,29.07158,0.0474375,0.05497558,57.82912,0.06197234,-0.02371875,-0.004672345,40.50841,0.02683039,-0.031625,-0.02917271,98.60547,0.03660308,0.00034375,0.001781239,55.20216,0.007315385
462.4695,573.0887,690.9412,1264.03,29.10095,0.07528125,0.08206458,57.82912,0.06210115,-0.02251562,-0.005344122,40.50841,0.02680055,-0.02354687,-0.02522657,98.60547,0.03660837,-0.004296875,-0.002780375,55.20216,0.007308504
462.4704,573.0887,690.9412,1264.03,29.10095,0.09367188,0.1003736,57.82912,0.06222558,-0.01873437,-0.001557313,40.50841,0.0267707,-0.0034375,-0.002467946,98.60547,0.03661295,-0.004125,-0.002487279,55.20216,0.007302465
462.4713,573.0887,690.9412,1264.03,29.10095,0.08439063,0.0868737,57.82912,0.0623401,-0.01546875,0.000928351,40.50841,0.02674086,0.02853125,0.02747974,98.60547,0.03661858,6.25278E-16,0.000955747,55.20216,0.007297799
462.4722,573.0887,690.9412,1264.03,29.10095,0.07957813,0.0855651,57.82912,0.06244551,-0.01185937,0.003300978,40.50841,0.02672593,0.048125,0.04785472,98.60547,0.03662347,0.000515625,0.002408041,55.20216,0.007294314
462.4731,573.0887,690.9412,1264.03,29.10095,0.07459375,0.07405357,57.82912,0.06254186,-0.008078125,0.007269684,40.50841,0.02671101,0.05139063,0.05079633,98.60547,0.03662501,0.000859375,0.001448613,55.20216,0.007291246
462.474,572.4691,690.3199,1262.789,29.04214,0.0213125,0.02570651,57.82912,0.06263135,-0.001375,0.01208921,40.50841,0.02668117,0.03059375,0.02945355,98.60547,0.03662274,-0.00584375,-0.004001015,55.20216,0.007288326
462.4749,572.4691,690.3199,1262.789,29.04214,-0.004125,-0.005685037,57.82912,0.06272128,0.003609375,0.01740607,40.50841,0.02666625,0.01684375,0.01661746,98.60547,0.03661947,-0.00446875,-0.003870895,55.20216,0.007285444
462.4758,572.4691,690.3199,1262.789,29.04214,-0.0130625,-0.01108052,57.82912,0.06281249,0.006015625,0.01829422,40.50841,0.02665132,0.028875,0.02721943,98.60547,0.0366166,-0.003609375,-0.002058891,55.20216,0.007282559
462.4767,573.7083,689.6986,1263.407,29.07142,0.003609375,0.002503051,57.82912,0.06290397,0.003265625,0.01507704,40.50841,0.0266364,0.03196875,0.03191048,98.60547,0.03661286,-0.006359375,-0.005640044,55.20216,0.007279638
462.4776,574.3279,689.6986,1264.027,29.10079,0.03128125,0.03121786,57.82912,0.06299602,-0.00034375,0.01115202,40.50841,0.02662148,0.023375,0.02188491,98.60547,0.03660724,-0.0048125,-0.003447625,55.20216,0.007276474
462.4785,574.3279,690.3199,1264.648,29.13024,0.04021875,0.03987782,57.82912,0.06308775,-0.00103125,0.008722553,40.50841,0.02660656,0.02320313,0.02279367,98.60547,0.03660086,-0.0020625,-0.001381771,55.20216,0.007273426
462.4794,574.3279,689.6986,1264.027,29.10079,0.02096875,0.02014156,57.82912,0.06317848,-0.00240625,0.008307768,40.50841,0.02659163,0.0309375,0.03038844,98.60547,0.03659405,-0.00653125,-0.005162168,55.20216,0.007270486
462.4803,575.5671,689.6986,1265.266,29.15952,-0.04125,-0.04098922,57.82912,0.06327283,-0.0089375,-0.000747263,40.50841,0.02659163,0.02096875,0.01996097,98.60547,0.03658559,-0.007046875,-0.00641651,55.20216,0.007267254
462.4812,576.1867,689.0774,1265.264,29.15943,-0.1038125,-0.1042371,57.82912,0.0633783,-0.02234375,-0.01284602,40.50841,0.02657671,0.017875,0.01833223,98.60547,0.03657882,-0.00515625,-0.003924709,55.20216,0.007263577
462.4821,576.8063,689.0774,1265.884,29.1888,-0.08473437,-0.08356479,57.82912,0.06348248,-0.01976562,-0.01228169,40.50841,0.02657671,0.0185625,0.01768891,98.60547,0.03657504,6.25278E-16,0.000929234,55.20216,0.007259766
462.483,576.1867,689.6986,1265.885,29.18888,-0.031625,-0.03097501,57.82912,0.06358312,-0.01976562,-0.01192819,40.50841,0.02657671,-0.004125,-0.003574499,98.60547,0.03657631,0.004296875,0.00502167,55.20216,0.007256263
462.4839,576.1867,689.6986,1267.125,29.24765,-0.04864062,-0.04594434,57.82912,0.0636845,-0.02423437,-0.01682907,40.50841,0.02657671,0.017875,0.01851818,98.60547,0.03658341,0.00446875,0.006037076,55.20216,0.007253246
462.4848,578.0455,690.3199,1268.366,29.30642,-0.1060469,-0.1036844,57.82912,0.06378332,-0.02028125,-0.01395929,40.50841,0.02659163,0.05757813,0.05708854,98.60547,0.03659397,0.00584375,0.005961342,55.20216,0.007250364
462.4857,578.6651,689.6986,1268.364,29.30634,-0.1280469,-0.1235303,57.82912,0.06386931,-0.01460937,-0.007332429,40.50841,0.02662148,0.02354688,0.02677188,98.60547,0.03659756,0.00378125,0.005894483,55.20216,0.007247552
462.4866,577.4259,690.3199,1267.746,29.27705,-0.09401562,-0.08896389,57.82912,0.06393755,-0.01684375,-0.01118157,40.50841,0.02666625,-0.02165625,-0.02358716,98.60547,0.0366022,0.0034375,0.003318736,55.20216,0.007244724
462.4875,577.4259,690.3199,1267.746,29.27705,-0.0556875,-0.04928855,57.82912,0.0639975,-0.0281875,-0.02154173,40.50841,0.02671101,-0.05448437,-0.04863677,98.60547,0.03660726,-0.00240625,-0.000187597,55.20216,0.007242811
462.4884,578.0455,689.0774,1267.123,29.24753,-0.03660937,-0.02818775,57.82912,0.06405494,-0.02870312,-0.02273948,40.50841,0.02674086,-0.0350625,-0.03786662,98.60547,0.03660846,-0.0006875,-0.000555549,55.20216,0.007241312
462.4893,578.0455,689.0774,1267.123,29.24753,-0.02423437,-0.01542584,57.82912,0.0641114,-0.03042187,-0.02461945,40.50841,0.02678562,0.011,0.01874032,98.60547,0.03660747,-0.00446875,-0.002459729,55.20216,0.007240504
462.4902,578.6651,689.6986,1268.364,29.30634,-0.01735937,-0.005771355,57.82912,0.06416834,-0.0391875,-0.03255456,40.50841,0.02683039,0.03248438,0.02986583,98.60547,0.03660606,-0.00446875,-0.003888922,55.20216,0.007240955
462.4911,578.6651,689.6986,1268.364,29.30634,-0.009796875,0.002565474,57.82912,0.06422538,-0.0336875,-0.02821822,40.50841,0.02686023,-0.00721875,0.001357489,98.60547,0.03660284,-0.0048125,-0.002995787,55.20216,0.007241666
462.492,578.0455,689.6986,1267.744,29.27697,-0.00103125,0.01310995,57.82912,0.06428263,-0.02303125,-0.01602264,40.50841,0.026905,0.04451563,0.04314219,98.60547,0.03660024,-0.0048125,-0.003845017,55.20216,0.007242424
462.4929,578.0455,689.6986,1268.674,29.32102,0.01478125,0.03147422,57.82912,0.0643408,-0.0165,-0.01042311,40.50841,0.02693485,0.04107813,0.04958459,98.60547,0.03659515,-0.00171875,5.19575E-05,55.20216,0.007243212
462.4938,579.9043,689.6986,1269.603,29.36507,0.02784375,0.04468432,57.82912,0.06439957,-0.011,-0.004042071,40.50841,0.02697961,-0.04709375,-0.04647008,98.60547,0.03658608,0.000859375,0.002155124,55.20216,0.007244235
462.4947,581.1435,689.6986,1270.842,29.4238,0.02440625,0.04493419,57.82912,0.06445773,0.00515625,0.01258187,40.50841,0.02702438,-0.08696875,-0.07912756,98.60547,0.03657467,-0.002234375,-0.00042062,55.20216,0.007245646
462.4956,581.1435,690.9412,1272.085,29.48269,0.0199375,0.04065965,57.82912,0.0645145,0.0213125,0.02818587,40.50841,0.02706915,-0.05173437,-0.04880009,98.60547,0.03655011,0.00240625,0.003993835,55.20216,0.007247125
462.4965,581.1435,691.5625,1272.706,29.51213,0.00584375,0.02884116,57.82912,0.06456927,0.02578125,0.03472938,40.50841,0.02711391,-0.06239062,-0.05528592,98.60547,0.03652627,0.00034375,0.002343462,55.20216,0.007248955
462.4974,581.1435,690.9412,1272.085,29.48269,-0.01684375,0.008871318,57.82912,0.06462472,0.03471875,0.04194487,40.50841,0.02714376,-0.04296875,-0.03799749,98.60547,0.03650005,-0.007734375,-0.006016819,55.20216,0.007251324
462.4983,581.7631,690.3199,1272.083,29.48261,-0.03420312,-0.009527494,57.82912,0.06468584,0.03660938,0.04677969,40.50841,0.02718852,-0.00275,0.004081362,98.60547,0.03647306,-0.0075625,-0.005121493,55.20216,0.007254022
462.4992,581.7631,691.5625,1273.326,29.5415,-0.03729687,-0.006778846,57.82912,0.06474957,0.03729688,0.04556258,40.50841,0.02721837,-0.0055,0.000679277,98.60547,0.03644993,-0.0034375,-0.001778813,55.20216,0.007257567
462.5001,581.7631,692.1838,1273.947,29.57094,-0.02371875,0.003121264,57.82912,0.06481338,0.03523438,0.04618621,40.50841,0.02724821,-0.03626562,-0.02885873,98.60547,0.03642783,-0.00378125,-0.000770549,55.20216,0.007262195
462.501,581.7631,691.5625,1273.326,29.5415,-0.03970312,-0.005872099,57.82912,0.06487717,0.03196875,0.04183994,40.50841,0.02726313,-0.04967187,-0.04334966,98.60547,0.03640388,-0.0075625,-0.005889263,55.20216,0.007267096
462.5019,581.7631,691.5625,1273.015,29.52677,-0.0309375,-0.000876316,57.82912,0.0649409,0.02096875,0.03247254,40.50841,0.02729298,-0.033,-0.02424156,98.60547,0.03637592,-0.01289062,-0.009509061,55.20216,0.007272157
462.5028,581.7631,690.9412,1272.704,29.51206,-0.01117187,0.02432334,57.82912,0.06500741,0.01632813,0.02795232,40.50841,0.02732282,-0.009453125,-0.003660208,98.60547,0.03634682,-0.001203125,0.000795567,55.20216,0.007277137
462.5037,582.3827,690.3199,1272.703,29.51197,0.00171875,0.03551285,57.82912,0.06508599,0.005671875,0.01790113,40.50841,0.02735267,-0.03695312,-0.02679497,98.60547,0.0363178,-0.000515625,0.002978322,55.20216,0.007282296
462.5046,583.0023,690.9412,1273.944,29.57079,-0.006875,0.02935338,57.82912,0.06517594,-0.01014062,0.002929835,40.50841,0.02738251,-0.05379687,-0.04825149,98.60547,0.03628732,-0.006359375,-0.00389866,55.20216,0.007287502
462.5055,583.0023,691.5625,1274.565,29.60023,-0.0213125,0.0157827,57.82912,0.06526866,-0.02217187,-0.008845983,40.50841,0.02742728,-0.04279687,-0.0322498,98.60547,0.03625258,-0.004984375,-0.001320166,55.20216,0.007292738
462.5064,583.6219,690.9412,1274.563,29.60015,-0.03626562,0.00036381,57.82912,0.06536295,-0.03746875,-0.02334303,40.50841,0.02745712,-0.02629687,-0.01981984,98.60547,0.03621704,-0.00309375,-0.000384444,55.20216,0.00729822
462.5073,584.2415,690.9412,1275.183,29.62951,-0.07528125,-0.03566025,57.82912,0.06546157,-0.04417187,-0.02958887,40.50841,0.02748697,-0.01598437,-0.00657181,98.60547,0.03618182,-0.008765625,-0.004667631,55.20216,0.007303948
462.5082,584.2415,692.1838,1276.425,29.6884,-0.1108594,-0.07418065,57.82912,0.06556264,-0.04314062,-0.02806998,40.50841,0.02753174,0.02182813,0.03035425,98.60547,0.03615279,-0.009625,-0.006865058,55.20216,0.00730986
462.5091,584.8611,692.8051,1277.666,29.74722,-0.09676562,-0.05533045,57.82912,0.06565978,-0.04503125,-0.02940783,40.50841,0.02756158,0.05139063,0.05884053,98.60547,0.03612625,-0.006875,-0.002351676,55.20216,0.00731536
462.51,584.8611,693.4264,1278.288,29.77666,-0.04434375,-0.00810715,57.82912,0.06575597,-0.03901562,-0.02290929,40.50841,0.02759142,0.05345313,0.06393961,98.60547,0.0360932,0.001546875,0.004552757,55.20216,0.007320821
462.5109,584.8611,693.4264,1278.598,29.79138,-0.02990625,0.01245135,57.82912,0.06585506,-0.0309375,-0.01457066,40.50841,0.02762127,0.0433125,0.0494037,98.60547,0.03605144,-0.0006875,0.003871528,55.20216,0.007326392
462.5118,584.8611,694.0477,1278.909,29.80611,-0.01460937,0.02115985,57.82912,0.06595631,-0.0281875,-0.01112162,40.50841,0.02765111,0.01959375,0.03060202,98.60547,0.03600442,0.002234375,0.005854593,55.20216,0.00733215
462.5127,585.4807,694.6689,1280.15,29.86492,-0.001890625,0.03987951,57.82912,0.06605908,-0.02870312,-0.0116654,40.50841,0.02768096,0.02904688,0.03522842,98.60547,0.03595528,0.009453125,0.01373271,55.20216,0.00733768
462.5136,585.4807,694.0477,1279.528,29.83546,0.0419375,0.07783974,57.82912,0.06616653,-0.03867187,-0.02100171,40.50841,0.0277108,0.03025,0.0403037,98.60547,0.03590333,0.01409375,0.01837464,55.20216,0.007341657
462.5145,584.8611,693.4264,1278.288,29.77666,0.07528125,0.1147113,57.82912,0.06627942,-0.04348437,-0.02572912,40.50841,0.02774065,0.01890625,0.02598485,98.60547,0.03584848,0.01271875,0.01683283,55.20216,0.007343753
462.5154,585.4807,692.8051,1278.286,29.77658,0.06135938,0.09776549,57.82912,0.06638534,-0.04365625,-0.02571479,40.50841,0.02777049,0.00309375,0.01186478,98.60547,0.03579361,0.0061875,0.01077521,55.20216,0.007343073
462.5163,585.4807,692.8051,1278.286,29.77658,0.009796875,0.0460007,57.82912,0.06648348,-0.04571875,-0.02739921,40.50841,0.02780034,0.004984375,0.01257036,98.60547,0.03573921,0.007734375,0.01200636,55.20216,0.007341136
462.5172,585.4807,692.8051,1278.286,29.77658,-0.0103125,0.02569375,57.82912,0.06658122,-0.044,-0.0258676,40.50841,0.02783018,0.0055,0.01347931,98.60547,0.03568439,0.008765625,0.01331149,55.20216,0.007337699
462.5181,585.4807,692.1838,1277.665,29.74713,0.00446875,0.03804776,57.82912,0.06668043,-0.0501875,-0.03169277,40.50841,0.02786002,-0.0158125,-0.008267791,98.60547,0.03562963,0.00103125,0.005582278,55.20216,0.007332343
462.519,585.4807,692.1838,1277.665,29.74713,0.044,0.07760484,57.82912,0.0667793,-0.05328125,-0.03494086,40.50841,0.02788987,-0.02096875,-0.01375515,98.60547,0.03557496,-0.00103125,0.003397719,55.20216,0.007326687
462.5199,585.4807,692.1838,1277.665,29.74713,0.07923438,0.1113941,57.82912,0.06687101,-0.042625,-0.02429877,40.50841,0.02791971,-0.006703125,0.00097615,98.60547,0.03551998,-0.003265625,0.001428892,55.20216,0.007321063
462.5208,585.4807,692.1838,1277.665,29.74713,0.0488125,0.07839756,57.82912,0.06694834,-0.03901562,-0.02056411,40.50841,0.02794956,-0.00515625,0.000951873,98.60547,0.03546574,-0.00825,-0.003857686,55.20216,0.007316027
462.5217,586.1003,692.1838,1278.284,29.7765,-0.00309375,0.02788699,57.82912,0.06701921,-0.039875,-0.02188617,40.50841,0.02796448,0.007046875,0.01473877,98.60547,0.03541344,-0.008765625,-0.00410807,55.20216,0.007311154
462.5226,586.1003,692.1838,1278.284,29.7765,-0.04915625,-0.02359901,57.82912,0.0670925,-0.03660937,-0.01824287,40.50841,0.02799432,0.01632813,0.02206419,98.60547,0.03536366,-0.0144375,-0.01002068,55.20216,0.007306331
462.5235,586.1003,692.8051,1278.905,29.80594,-0.1447187,-0.1161414,57.82912,0.0671736,-0.0323125,-0.01476403,40.50841,0.02802417,0.0116875,0.01776907,98.60547,0.0353142,-0.02028125,-0.01582569,55.20216,0.007300758
